{
  "resourceType" : "Bundle",
  "id" : "gx-genomic-bundle-adam-anyperson",
  "type" : "collection",
  "entry" : [{
    "fullUrl" : "http://example.org/fhir/Patient/gx-cancer-patient-adam-anyperson",
    "resource" : {
      "resourceType" : "Patient",
      "id" : "gx-cancer-patient-adam-anyperson",
      "meta" : {
        "profile" : ["http://hl7.org/fhir/us/mcode/StructureDefinition/mcode-cancer-patient"]
      },
      "text" : {
        "status" : "extensions",
        "div" : "<div xmlns=\"http://www.w3.org/1999/xhtml\"><p><b>Generated Narrative: Patient</b><a name=\"gx-cancer-patient-adam-anyperson\"> </a></p><div style=\"display: inline-block; background-color: #d9e0e7; padding: 6px; margin: 4px; border: 1px solid #8da1b4; border-radius: 5px; line-height: 60%\"><p style=\"margin-bottom: 0px\">Resource Patient &quot;gx-cancer-patient-adam-anyperson&quot; </p><p style=\"margin-bottom: 0px\">Profile: <a href=\"StructureDefinition-mcode-cancer-patient.html\">Cancer Patient Profile</a></p></div><p><b>US Core Birth Sex Extension</b>: M</p><p><b>identifier</b>: Patient external identifier: 22ea1d1b-03a5-47d6-81e0-b9b4cbb15ccf\u00a0(use:\u00a0USUAL), Medical Record Number: 123456789</p><p><b>name</b>: Adam Anyperson </p><p><b>gender</b>: male</p><p><b>birthDate</b>: 1990-01-01</p><p><b>address</b>: 987 Main St Anytown 12345 US </p></div>"
      },
      "extension" : [{
        "url" : "http://hl7.org/fhir/us/core/StructureDefinition/us-core-birthsex",
        "valueCode" : "M"
      }],
      "identifier" : [{
        "use" : "usual",
        "type" : {
          "coding" : [{
            "system" : "http://terminology.hl7.org/CodeSystem/v2-0203",
            "code" : "PT",
            "display" : "Patient external identifier"
          }]
        },
        "system" : "https://www.gensop.com",
        "value" : "22ea1d1b-03a5-47d6-81e0-b9b4cbb15ccf"
      },
      {
        "type" : {
          "coding" : [{
            "system" : "http://terminology.hl7.org/CodeSystem/v2-0203",
            "code" : "MR",
            "display" : "Medical Record Number"
          }]
        },
        "system" : "http://hospital.example.org",
        "value" : "123456789"
      }],
      "name" : [{
        "family" : "Anyperson",
        "given" : ["Adam"]
      }],
      "gender" : "male",
      "birthDate" : "1990-01-01",
      "address" : [{
        "line" : ["987 Main St"],
        "city" : "Anytown",
        "postalCode" : "12345",
        "country" : "US"
      }]
    }
  },
  {
    "fullUrl" : "http://example.org/fhir/DiagnosticReport/gx-genomics-report-adam-anyperson",
    "resource" : {
      "resourceType" : "DiagnosticReport",
      "id" : "gx-genomics-report-adam-anyperson",
      "meta" : {
        "profile" : ["http://hl7.org/fhir/us/mcode/StructureDefinition/mcode-genomics-report"]
      },
      "text" : {
        "status" : "generated",
        "div" : "<div xmlns=\"http://www.w3.org/1999/xhtml\"><p><b>Generated Narrative: DiagnosticReport</b><a name=\"gx-genomics-report-adam-anyperson\"> </a></p><div style=\"display: inline-block; background-color: #d9e0e7; padding: 6px; margin: 4px; border: 1px solid #8da1b4; border-radius: 5px; line-height: 60%\"><p style=\"margin-bottom: 0px\">Resource DiagnosticReport &quot;gx-genomics-report-adam-anyperson&quot; </p><p style=\"margin-bottom: 0px\">Profile: <a href=\"StructureDefinition-mcode-genomics-report.html\">Genomics Report Profile</a></p></div><p><b>basedOn</b>: <a href=\"#ServiceRequest_gx-order-tumornormal-gensop-inc\">See above (ServiceRequest/gx-order-tumornormal-gensop-inc)</a></p><p><b>status</b>: final</p><p><b>category</b>: Genetics <span style=\"background: LightGoldenRodYellow; margin: 4px; border: 1px solid khaki\"> (<a href=\"http://terminology.hl7.org/5.3.0/CodeSystem-v2-0074.html\">diagnosticServiceSectionId</a>#GE)</span></p><p><b>code</b>: Genetic analysis report <span style=\"background: LightGoldenRodYellow; margin: 4px; border: 1px solid khaki\"> (<a href=\"https://loinc.org/\">LOINC</a>#51969-4)</span></p><p><b>subject</b>: <a href=\"#Patient_gx-cancer-patient-adam-anyperson\">See above (Patient/gx-cancer-patient-adam-anyperson)</a></p><p><b>effective</b>: 2022-02-15 19:28:58+0500</p><p><b>performer</b>: <a href=\"Organization-gx-us-core-organization-gensop-inc.html\">Organization/gx-us-core-organization-gensop-inc</a> &quot;Gensop Labs, Inc.&quot;</p><p><b>resultsInterpreter</b>: <a href=\"#Practitioner_gx-practitioner-test-pathologist\">See above (Practitioner/gx-practitioner-test-pathologist)</a></p><p><b>specimen</b>: </p><ul><li><a href=\"#Specimen_gx-genomic-specimen-tumornormal-tumor\">See above (Specimen/gx-genomic-specimen-tumornormal-tumor)</a></li><li><a href=\"#Specimen_gx-genomic-specimen-tumornormal-normal\">See above (Specimen/gx-genomic-specimen-tumornormal-normal)</a></li></ul><p><b>result</b>: </p><ul><li><a href=\"#Observation_gx-genomic-variant-somatic-bap1-indel\">See above (Observation/gx-genomic-variant-somatic-bap1-indel)</a></li><li><a href=\"#Observation_gx-genomic-variant-somatic-cdkn2a-cnv\">See above (Observation/gx-genomic-variant-somatic-cdkn2a-cnv)</a></li><li><a href=\"#Observation_gx-genomic-variant-somatic-cdkn2b-cnv\">See above (Observation/gx-genomic-variant-somatic-cdkn2b-cnv)</a></li><li><a href=\"#Observation_gx-genomic-variant-somatic-kdm5d\">See above (Observation/gx-genomic-variant-somatic-kdm5d)</a></li><li><a href=\"#Observation_gx-genomic-variant-somatic-mtap\">See above (Observation/gx-genomic-variant-somatic-mtap)</a></li><li><a href=\"#Observation_gx-genomic-variant-somatic-mycn\">See above (Observation/gx-genomic-variant-somatic-mycn)</a></li><li><a href=\"#Observation_gx-genomic-variant-somatic-pof1b\">See above (Observation/gx-genomic-variant-somatic-pof1b)</a></li><li><a href=\"#Observation_gx-genomic-variant-somatic-polrmt\">See above (Observation/gx-genomic-variant-somatic-polrmt)</a></li><li><a href=\"#Observation_gx-genomic-diagnostic-implication-bap1\">See above (Observation/gx-genomic-diagnostic-implication-bap1)</a></li><li><a href=\"#Observation_gx-genomic-diagnostic-implication-pof1b\">See above (Observation/gx-genomic-diagnostic-implication-pof1b)</a></li><li><a href=\"#Observation_gx-genomic-diagnostic-implication-polrmt\">See above (Observation/gx-genomic-diagnostic-implication-polrmt)</a></li><li><a href=\"#Observation_gx-genomic-variant-fusion-met-alk\">See above (Observation/gx-genomic-variant-fusion-met-alk)</a></li><li><a href=\"#Observation_gx-genomic-variant-pertinent-negative-nras-kit-braf\">See above (Observation/gx-genomic-variant-pertinent-negative-nras-kit-braf)</a></li><li><a href=\"#Observation_gx-genomic-tmb\">See above (Observation/gx-genomic-tmb)</a></li><li><a href=\"Observation-gx-genomic-msi.html\">Observation/gx-genomic-msi</a></li><li><a href=\"#Observation_gx-genomic-therapeutic-implication-alectinib\">See above (Observation/gx-genomic-therapeutic-implication-alectinib)</a></li><li><a href=\"#Observation_gx-genomic-therapeutic-implication-brigatinib\">See above (Observation/gx-genomic-therapeutic-implication-brigatinib)</a></li><li><a href=\"#Observation_gx-genomic-therapeutic-implication-ceritinib\">See above (Observation/gx-genomic-therapeutic-implication-ceritinib)</a></li><li><a href=\"#Observation_gx-genomic-therapeutic-implication-crizotinib\">See above (Observation/gx-genomic-therapeutic-implication-crizotinib)</a></li><li><a href=\"#Observation_gx-genomic-therapeutic-implication-lorlatinib\">See above (Observation/gx-genomic-therapeutic-implication-lorlatinib)</a></li></ul></div>"
      },
      "basedOn" : [{
        "reference" : "ServiceRequest/gx-order-tumornormal-gensop-inc"
      }],
      "status" : "final",
      "category" : [{
        "coding" : [{
          "system" : "http://terminology.hl7.org/CodeSystem/v2-0074",
          "code" : "GE"
        }]
      }],
      "code" : {
        "coding" : [{
          "system" : "http://loinc.org",
          "code" : "51969-4",
          "display" : "Genetic analysis report"
        }]
      },
      "subject" : {
        "reference" : "Patient/gx-cancer-patient-adam-anyperson"
      },
      "effectiveDateTime" : "2022-02-15T19:28:58+05:00",
      "performer" : [{
        "reference" : "Organization/gx-us-core-organization-gensop-inc"
      }],
      "resultsInterpreter" : [{
        "reference" : "Practitioner/gx-practitioner-test-pathologist"
      }],
      "specimen" : [{
        "reference" : "Specimen/gx-genomic-specimen-tumornormal-tumor"
      },
      {
        "reference" : "Specimen/gx-genomic-specimen-tumornormal-normal"
      }],
      "result" : [{
        "reference" : "Observation/gx-genomic-variant-somatic-bap1-indel"
      },
      {
        "reference" : "Observation/gx-genomic-variant-somatic-cdkn2a-cnv"
      },
      {
        "reference" : "Observation/gx-genomic-variant-somatic-cdkn2b-cnv"
      },
      {
        "reference" : "Observation/gx-genomic-variant-somatic-kdm5d"
      },
      {
        "reference" : "Observation/gx-genomic-variant-somatic-mtap"
      },
      {
        "reference" : "Observation/gx-genomic-variant-somatic-mycn"
      },
      {
        "reference" : "Observation/gx-genomic-variant-somatic-pof1b"
      },
      {
        "reference" : "Observation/gx-genomic-variant-somatic-polrmt"
      },
      {
        "reference" : "Observation/gx-genomic-diagnostic-implication-bap1"
      },
      {
        "reference" : "Observation/gx-genomic-diagnostic-implication-pof1b"
      },
      {
        "reference" : "Observation/gx-genomic-diagnostic-implication-polrmt"
      },
      {
        "reference" : "Observation/gx-genomic-variant-fusion-met-alk"
      },
      {
        "reference" : "Observation/gx-genomic-variant-pertinent-negative-nras-kit-braf"
      },
      {
        "reference" : "Observation/gx-genomic-tmb"
      },
      {
        "reference" : "Observation/gx-genomic-msi"
      },
      {
        "reference" : "Observation/gx-genomic-therapeutic-implication-alectinib"
      },
      {
        "reference" : "Observation/gx-genomic-therapeutic-implication-brigatinib"
      },
      {
        "reference" : "Observation/gx-genomic-therapeutic-implication-ceritinib"
      },
      {
        "reference" : "Observation/gx-genomic-therapeutic-implication-crizotinib"
      },
      {
        "reference" : "Observation/gx-genomic-therapeutic-implication-lorlatinib"
      }]
    }
  },
  {
    "fullUrl" : "http://example.org/fhir/ServiceRequest/gx-order-tumornormal-gensop-inc",
    "resource" : {
      "resourceType" : "ServiceRequest",
      "id" : "gx-order-tumornormal-gensop-inc",
      "text" : {
        "status" : "generated",
        "div" : "<div xmlns=\"http://www.w3.org/1999/xhtml\"><p><b>Generated Narrative: ServiceRequest</b><a name=\"gx-order-tumornormal-gensop-inc\"> </a></p><div style=\"display: inline-block; background-color: #d9e0e7; padding: 6px; margin: 4px; border: 1px solid #8da1b4; border-radius: 5px; line-height: 60%\"><p style=\"margin-bottom: 0px\">Resource ServiceRequest &quot;gx-order-tumornormal-gensop-inc&quot; </p></div><p><b>identifier</b>: Filler Identifier: 22howe</p><p><b>status</b>: completed</p><p><b>intent</b>: order</p><p><b>code</b>: xT - 648 gene panel <span style=\"background: LightGoldenRodYellow; margin: 4px; border: 1px solid khaki\"> (www.gensop.com#XT.V4)</span></p><p><b>subject</b>: <a href=\"#Patient_gx-cancer-patient-adam-anyperson\">See above (Patient/gx-cancer-patient-adam-anyperson)</a></p><p><b>reasonCode</b>: Malignant neoplasm of unspecified part of bronchus or lung <span style=\"background: LightGoldenRodYellow; margin: 4px; border: 1px solid khaki\"> (<a href=\"http://terminology.hl7.org/5.3.0/CodeSystem-icd10CM.html\">International Classification of Diseases, 10th Revision, Clinical Modification (ICD-10-CM)</a>#C34.9; <a href=\"http://terminology.hl7.org/5.3.0/CodeSystem-icd-o-3.html\">International Classification of Diseases for Oncology, version 3.</a>#C34.9 8140/3 &quot;Lung adenocarcinoma&quot;)</span></p></div>"
      },
      "identifier" : [{
        "type" : {
          "coding" : [{
            "system" : "http://terminology.hl7.org/CodeSystem/v2-0203",
            "code" : "FILL",
            "display" : "Filler Identifier"
          }]
        },
        "system" : "https://www.gensop.com",
        "value" : "22howe"
      }],
      "status" : "completed",
      "intent" : "order",
      "code" : {
        "coding" : [{
          "system" : "https://www.gensop.com",
          "code" : "XT.V4",
          "display" : "xT - 648 gene panel"
        }]
      },
      "subject" : {
        "reference" : "Patient/gx-cancer-patient-adam-anyperson"
      },
      "reasonCode" : [{
        "coding" : [{
          "system" : "http://hl7.org/fhir/sid/icd-10-cm",
          "code" : "C34.9",
          "display" : "Malignant neoplasm of unspecified part of bronchus or lung"
        },
        {
          "system" : "http://terminology.hl7.org/CodeSystem/icd-o-3",
          "code" : "C34.9 8140/3",
          "display" : "Lung adenocarcinoma"
        }]
      }]
    }
  },
  {
    "fullUrl" : "http://example.org/fhir/Practitioner/gx-practitioner-test-pathologist",
    "resource" : {
      "resourceType" : "Practitioner",
      "id" : "gx-practitioner-test-pathologist",
      "text" : {
        "status" : "generated",
        "div" : "<div xmlns=\"http://www.w3.org/1999/xhtml\"><p><b>Generated Narrative: Practitioner</b><a name=\"gx-practitioner-test-pathologist\"> </a></p><div style=\"display: inline-block; background-color: #d9e0e7; padding: 6px; margin: 4px; border: 1px solid #8da1b4; border-radius: 5px; line-height: 60%\"><p style=\"margin-bottom: 0px\">Resource Practitioner &quot;gx-practitioner-test-pathologist&quot; </p></div><p><b>name</b>: Test Pathologist, MD</p></div>"
      },
      "name" : [{
        "text" : "Test Pathologist, MD"
      }]
    }
  },
  {
    "fullUrl" : "http://example.org/fhir/Specimen/gx-genomic-specimen-tumornormal-tumor",
    "resource" : {
      "resourceType" : "Specimen",
      "id" : "gx-genomic-specimen-tumornormal-tumor",
      "meta" : {
        "profile" : ["http://hl7.org/fhir/us/mcode/StructureDefinition/mcode-human-specimen"]
      },
      "text" : {
        "status" : "generated",
        "div" : "<div xmlns=\"http://www.w3.org/1999/xhtml\"><p><b>Generated Narrative: Specimen</b><a name=\"gx-genomic-specimen-tumornormal-tumor\"> </a></p><div style=\"display: inline-block; background-color: #d9e0e7; padding: 6px; margin: 4px; border: 1px solid #8da1b4; border-radius: 5px; line-height: 60%\"><p style=\"margin-bottom: 0px\">Resource Specimen &quot;gx-genomic-specimen-tumornormal-tumor&quot; </p><p style=\"margin-bottom: 0px\">Profile: <a href=\"StructureDefinition-mcode-human-specimen.html\">Human Specimen Profile</a></p></div><p><b>status</b>: available</p><p><b>type</b>: Tumor <span style=\"background: LightGoldenRodYellow; margin: 4px; border: 1px solid khaki\"> (<a href=\"http://terminology.hl7.org/5.3.0/CodeSystem-v2-0487.html\">specimenType</a>#TUMOR)</span></p><p><b>subject</b>: <a href=\"#Patient_gx-cancer-patient-adam-anyperson\">See above (Patient/gx-cancer-patient-adam-anyperson)</a></p><p><b>receivedTime</b>: 2021-02-09 21:30:50+0500</p><h3>Collections</h3><table class=\"grid\"><tr><td style=\"display: none\">-</td><td><b>Collected[x]</b></td><td><b>BodySite</b></td></tr><tr><td style=\"display: none\">*</td><td>2021-02-06 17:15:00+0500</td><td>Left lung structure (body structure) <span style=\"background: LightGoldenRodYellow; margin: 4px; border: 1px solid khaki\"> (<a href=\"https://browser.ihtsdotools.org/\">SNOMED CT</a>#44029006)</span></td></tr></table></div>"
      },
      "status" : "available",
      "type" : {
        "coding" : [{
          "system" : "http://terminology.hl7.org/CodeSystem/v2-0487",
          "code" : "TUMOR",
          "display" : "Tumor"
        }]
      },
      "subject" : {
        "reference" : "Patient/gx-cancer-patient-adam-anyperson"
      },
      "receivedTime" : "2021-02-09T21:30:50+05:00",
      "collection" : {
        "collectedDateTime" : "2021-02-06T17:15:00+05:00",
        "bodySite" : {
          "coding" : [{
            "system" : "http://snomed.info/sct",
            "code" : "44029006",
            "display" : "Left lung structure (body structure)"
          }]
        }
      }
    }
  },
  {
    "fullUrl" : "http://example.org/fhir/Specimen/gx-genomic-specimen-tumornormal-normal",
    "resource" : {
      "resourceType" : "Specimen",
      "id" : "gx-genomic-specimen-tumornormal-normal",
      "meta" : {
        "profile" : ["http://hl7.org/fhir/us/mcode/StructureDefinition/mcode-human-specimen"]
      },
      "text" : {
        "status" : "generated",
        "div" : "<div xmlns=\"http://www.w3.org/1999/xhtml\"><p><b>Generated Narrative: Specimen</b><a name=\"gx-genomic-specimen-tumornormal-normal\"> </a></p><div style=\"display: inline-block; background-color: #d9e0e7; padding: 6px; margin: 4px; border: 1px solid #8da1b4; border-radius: 5px; line-height: 60%\"><p style=\"margin-bottom: 0px\">Resource Specimen &quot;gx-genomic-specimen-tumornormal-normal&quot; </p><p style=\"margin-bottom: 0px\">Profile: <a href=\"StructureDefinition-mcode-human-specimen.html\">Human Specimen Profile</a></p></div><p><b>status</b>: available</p><p><b>type</b>: Whole Blood <span style=\"background: LightGoldenRodYellow; margin: 4px; border: 1px solid khaki\"> (<a href=\"http://terminology.hl7.org/5.3.0/CodeSystem-v2-0487.html\">specimenType</a>#BLD)</span></p><p><b>subject</b>: <a href=\"#Patient_gx-cancer-patient-adam-anyperson\">See above (Patient/gx-cancer-patient-adam-anyperson)</a></p><p><b>receivedTime</b>: 2021-02-09 21:30:50+0500</p><h3>Collections</h3><table class=\"grid\"><tr><td style=\"display: none\">-</td><td><b>Collected[x]</b></td></tr><tr><td style=\"display: none\">*</td><td>2021-02-06 17:15:00+0500</td></tr></table></div>"
      },
      "status" : "available",
      "type" : {
        "coding" : [{
          "system" : "http://terminology.hl7.org/CodeSystem/v2-0487",
          "code" : "BLD",
          "display" : "Whole Blood"
        }]
      },
      "subject" : {
        "reference" : "Patient/gx-cancer-patient-adam-anyperson"
      },
      "receivedTime" : "2021-02-09T21:30:50+05:00",
      "collection" : {
        "collectedDateTime" : "2021-02-06T17:15:00+05:00"
      }
    }
  },
  {
    "fullUrl" : "http://example.org/fhir/Observation/gx-genomic-variant-somatic-bap1-indel",
    "resource" : {
      "resourceType" : "Observation",
      "id" : "gx-genomic-variant-somatic-bap1-indel",
      "meta" : {
        "profile" : ["http://hl7.org/fhir/us/mcode/StructureDefinition/mcode-genomic-variant"]
      },
      "text" : {
        "status" : "generated",
        "div" : "<div xmlns=\"http://www.w3.org/1999/xhtml\"><p><b>Generated Narrative: Observation</b><a name=\"gx-genomic-variant-somatic-bap1-indel\"> </a></p><div style=\"display: inline-block; background-color: #d9e0e7; padding: 6px; margin: 4px; border: 1px solid #8da1b4; border-radius: 5px; line-height: 60%\"><p style=\"margin-bottom: 0px\">Resource Observation &quot;gx-genomic-variant-somatic-bap1-indel&quot; </p><p style=\"margin-bottom: 0px\">Profile: <a href=\"StructureDefinition-mcode-genomic-variant.html\">Genomic Variant Profile</a></p></div><p><b>status</b>: final</p><p><b>category</b>: Laboratory <span style=\"background: LightGoldenRodYellow; margin: 4px; border: 1px solid khaki\"> (<a href=\"http://terminology.hl7.org/5.3.0/CodeSystem-observation-category.html\">Observation Category Codes</a>#laboratory)</span></p><p><b>code</b>: 69548-6 <span style=\"background: LightGoldenRodYellow; margin: 4px; border: 1px solid khaki\"> (<a href=\"https://loinc.org/\">LOINC</a>#69548-6)</span></p><p><b>subject</b>: <a href=\"#Patient_gx-cancer-patient-adam-anyperson\">See above (Patient/gx-cancer-patient-adam-anyperson)</a></p><p><b>effective</b>: 2019-04-01</p><p><b>performer</b>: <a href=\"Practitioner-us-core-practitioner-owen-oncologist.html\">Practitioner/us-core-practitioner-owen-oncologist</a> &quot; ONCOLOGIST&quot;</p><p><b>value</b>: Present <span style=\"background: LightGoldenRodYellow; margin: 4px; border: 1px solid khaki\"> (<a href=\"https://loinc.org/\">LOINC</a>#LA9633-4)</span></p><p><b>method</b>: Sequencing <span style=\"background: LightGoldenRodYellow; margin: 4px; border: 1px solid khaki\"> (<a href=\"https://loinc.org/\">LOINC</a>#LA26398-0)</span></p><blockquote><p><b>component</b></p><p><b>code</b>: 48018-6 <span style=\"background: LightGoldenRodYellow; margin: 4px; border: 1px solid khaki\"> (<a href=\"https://loinc.org/\">LOINC</a>#48018-6)</span></p><p><b>value</b>: BAP1 <span style=\"background: LightGoldenRodYellow; margin: 4px; border: 1px solid khaki\"> (<a href=\"http://terminology.hl7.org/5.3.0/CodeSystem-v3-hgnc.html\">HUGO Gene Nomenclature Committee Genes</a>#HGNC:950; gene#3815)</span></p></blockquote><blockquote><p><b>component</b></p><p><b>code</b>: 51958-7 <span style=\"background: LightGoldenRodYellow; margin: 4px; border: 1px solid khaki\"> (<a href=\"https://loinc.org/\">LOINC</a>#51958-7)</span></p><p><b>value</b>: NM_004656.4 <span style=\"background: LightGoldenRodYellow; margin: 4px; border: 1px solid khaki\"> (<a href=\"http://terminology.hl7.org/5.3.0/CodeSystem-v3-refSeq.html\">Gene Reference Sequence Collection</a>#NM_004656)</span></p></blockquote><blockquote><p><b>component</b></p><p><b>code</b>: 48004-6 <span style=\"background: LightGoldenRodYellow; margin: 4px; border: 1px solid khaki\"> (<a href=\"https://loinc.org/\">LOINC</a>#48004-6)</span></p><p><b>value</b>: NC_000003.11(NM_004656.4):c.1768C&gt;T <span style=\"background: LightGoldenRodYellow; margin: 4px; border: 1px solid khaki\"> (<a href=\"http://terminology.hl7.org/5.3.0/CodeSystem-v3-hgvs.html\">Human Genome Variation Society nomenclature</a>#NM_004656.4:c.1768C&gt;T)</span></p></blockquote><blockquote><p><b>component</b></p><p><b>code</b>: 48005-3 <span style=\"background: LightGoldenRodYellow; margin: 4px; border: 1px solid khaki\"> (<a href=\"https://loinc.org/\">LOINC</a>#48005-3)</span></p><p><b>value</b>: NP_004647.1:p.(Gln590Ter) <span style=\"background: LightGoldenRodYellow; margin: 4px; border: 1px solid khaki\"> (<a href=\"http://terminology.hl7.org/5.3.0/CodeSystem-v3-hgvs.html\">Human Genome Variation Society nomenclature</a>#NP_004647.1:p.(Gln590Ter))</span></p></blockquote><blockquote><p><b>component</b></p><p><b>code</b>: 48002-0 <span style=\"background: LightGoldenRodYellow; margin: 4px; border: 1px solid khaki\"> (<a href=\"https://loinc.org/\">LOINC</a>#48002-0)</span></p><p><b>value</b>: Somatic <span style=\"background: LightGoldenRodYellow; margin: 4px; border: 1px solid khaki\"> (<a href=\"https://loinc.org/\">LOINC</a>#LA6684-0)</span></p></blockquote><blockquote><p><b>component</b></p><p><b>code</b>: 81258-6 <span style=\"background: LightGoldenRodYellow; margin: 4px; border: 1px solid khaki\"> (<a href=\"https://loinc.org/\">LOINC</a>#81258-6)</span></p><p><b>value</b>: 57.4 %<span style=\"background: LightGoldenRodYellow\"> (Details: UCUM code % = '%')</span></p></blockquote><blockquote><p><b>component</b></p><p><b>code</b>: Molecular Consequence <span style=\"background: LightGoldenRodYellow; margin: 4px; border: 1px solid khaki\"> (<a href=\"http://hl7.org/fhir/uv/genomics-reporting/STU2/CodeSystem-tbd-codes-cs.html\">To Be Determined Codes</a>#molecular-consequence)</span></p><p><b>value</b>: stop_gained <span style=\"background: LightGoldenRodYellow; margin: 4px; border: 1px solid khaki\"> (#SO:0001587)</span></p></blockquote><blockquote><p><b>component</b></p><p><b>code</b>: 62374-4 <span style=\"background: LightGoldenRodYellow; margin: 4px; border: 1px solid khaki\"> (<a href=\"https://loinc.org/\">LOINC</a>#62374-4)</span></p><p><b>value</b>: GRCh37 <span style=\"background: LightGoldenRodYellow; margin: 4px; border: 1px solid khaki\"> (<a href=\"https://loinc.org/\">LOINC</a>#LA14029-5)</span></p></blockquote></div>"
      },
      "status" : "final",
      "category" : [{
        "coding" : [{
          "system" : "http://terminology.hl7.org/CodeSystem/observation-category",
          "code" : "laboratory"
        }]
      }],
      "code" : {
        "coding" : [{
          "system" : "http://loinc.org",
          "code" : "69548-6"
        }]
      },
      "subject" : {
        "reference" : "Patient/gx-cancer-patient-adam-anyperson"
      },
      "effectiveDateTime" : "2019-04-01",
      "performer" : [{
        "reference" : "Practitioner/us-core-practitioner-owen-oncologist"
      }],
      "valueCodeableConcept" : {
        "coding" : [{
          "system" : "http://loinc.org",
          "code" : "LA9633-4",
          "display" : "Present"
        }]
      },
      "method" : {
        "coding" : [{
          "system" : "http://loinc.org",
          "code" : "LA26398-0",
          "display" : "Sequencing"
        }]
      },
      "component" : [{
        "code" : {
          "coding" : [{
            "system" : "http://loinc.org",
            "code" : "48018-6"
          }]
        },
        "valueCodeableConcept" : {
          "coding" : [{
            "system" : "http://www.genenames.org",
            "code" : "HGNC:950",
            "display" : "BAP1"
          },
          {
            "system" : "https://www.ncbi.nlm.nih.gov/gene",
            "code" : "3815",
            "display" : "BAP1"
          }]
        }
      },
      {
        "code" : {
          "coding" : [{
            "system" : "http://loinc.org",
            "code" : "51958-7"
          }]
        },
        "valueCodeableConcept" : {
          "coding" : [{
            "system" : "http://www.ncbi.nlm.nih.gov/refseq",
            "code" : "NM_004656",
            "display" : "NM_004656.4"
          }]
        }
      },
      {
        "code" : {
          "coding" : [{
            "system" : "http://loinc.org",
            "code" : "48004-6"
          }]
        },
        "valueCodeableConcept" : {
          "coding" : [{
            "system" : "http://varnomen.hgvs.org",
            "code" : "NM_004656.4:c.1768C>T",
            "display" : "NC_000003.11(NM_004656.4):c.1768C>T"
          }]
        }
      },
      {
        "code" : {
          "coding" : [{
            "system" : "http://loinc.org",
            "code" : "48005-3"
          }]
        },
        "valueCodeableConcept" : {
          "coding" : [{
            "system" : "http://varnomen.hgvs.org",
            "code" : "NP_004647.1:p.(Gln590Ter)",
            "display" : "NP_004647.1:p.(Gln590Ter)"
          }]
        }
      },
      {
        "code" : {
          "coding" : [{
            "system" : "http://loinc.org",
            "code" : "48002-0"
          }]
        },
        "valueCodeableConcept" : {
          "coding" : [{
            "system" : "http://loinc.org",
            "code" : "LA6684-0",
            "display" : "Somatic"
          }]
        }
      },
      {
        "code" : {
          "coding" : [{
            "system" : "http://loinc.org",
            "code" : "81258-6"
          }]
        },
        "valueQuantity" : {
          "value" : 57.4,
          "unit" : "%",
          "system" : "http://unitsofmeasure.org",
          "code" : "%"
        }
      },
      {
        "code" : {
          "coding" : [{
            "system" : "http://hl7.org/fhir/uv/genomics-reporting/CodeSystem/tbd-codes-cs",
            "code" : "molecular-consequence"
          }]
        },
        "valueCodeableConcept" : {
          "coding" : [{
            "system" : "http://www.sequenceontology.org/",
            "code" : "SO:0001587",
            "display" : "stop_gained"
          }]
        }
      },
      {
        "code" : {
          "coding" : [{
            "system" : "http://loinc.org",
            "code" : "62374-4"
          }]
        },
        "valueCodeableConcept" : {
          "coding" : [{
            "system" : "http://loinc.org",
            "code" : "LA14029-5",
            "display" : "GRCh37"
          }]
        }
      }]
    }
  },
  {
    "fullUrl" : "http://example.org/fhir/Observation/gx-genomic-variant-somatic-cdkn2a-cnv",
    "resource" : {
      "resourceType" : "Observation",
      "id" : "gx-genomic-variant-somatic-cdkn2a-cnv",
      "meta" : {
        "profile" : ["http://hl7.org/fhir/us/mcode/StructureDefinition/mcode-genomic-variant"]
      },
      "text" : {
        "status" : "generated",
        "div" : "<div xmlns=\"http://www.w3.org/1999/xhtml\"><p><b>Generated Narrative: Observation</b><a name=\"gx-genomic-variant-somatic-cdkn2a-cnv\"> </a></p><div style=\"display: inline-block; background-color: #d9e0e7; padding: 6px; margin: 4px; border: 1px solid #8da1b4; border-radius: 5px; line-height: 60%\"><p style=\"margin-bottom: 0px\">Resource Observation &quot;gx-genomic-variant-somatic-cdkn2a-cnv&quot; </p><p style=\"margin-bottom: 0px\">Profile: <a href=\"StructureDefinition-mcode-genomic-variant.html\">Genomic Variant Profile</a></p></div><p><b>status</b>: final</p><p><b>category</b>: Laboratory <span style=\"background: LightGoldenRodYellow; margin: 4px; border: 1px solid khaki\"> (<a href=\"http://terminology.hl7.org/5.3.0/CodeSystem-observation-category.html\">Observation Category Codes</a>#laboratory)</span></p><p><b>code</b>: 69548-6 <span style=\"background: LightGoldenRodYellow; margin: 4px; border: 1px solid khaki\"> (<a href=\"https://loinc.org/\">LOINC</a>#69548-6)</span></p><p><b>subject</b>: <a href=\"#Patient_gx-cancer-patient-adam-anyperson\">See above (Patient/gx-cancer-patient-adam-anyperson)</a></p><p><b>effective</b>: 2019-04-01</p><p><b>performer</b>: <a href=\"Practitioner-us-core-practitioner-owen-oncologist.html\">Practitioner/us-core-practitioner-owen-oncologist</a> &quot; ONCOLOGIST&quot;</p><p><b>value</b>: Present <span style=\"background: LightGoldenRodYellow; margin: 4px; border: 1px solid khaki\"> (<a href=\"https://loinc.org/\">LOINC</a>#LA9633-4)</span></p><p><b>method</b>: Sequencing <span style=\"background: LightGoldenRodYellow; margin: 4px; border: 1px solid khaki\"> (<a href=\"https://loinc.org/\">LOINC</a>#LA26398-0)</span></p><blockquote><p><b>component</b></p><p><b>code</b>: 48018-6 <span style=\"background: LightGoldenRodYellow; margin: 4px; border: 1px solid khaki\"> (<a href=\"https://loinc.org/\">LOINC</a>#48018-6)</span></p><p><b>value</b>: CDKN2A <span style=\"background: LightGoldenRodYellow; margin: 4px; border: 1px solid khaki\"> (<a href=\"http://terminology.hl7.org/5.3.0/CodeSystem-v3-hgnc.html\">HUGO Gene Nomenclature Committee Genes</a>#HGNC:1787; gene#1029)</span></p></blockquote><blockquote><p><b>component</b></p><p><b>code</b>: 48002-0 <span style=\"background: LightGoldenRodYellow; margin: 4px; border: 1px solid khaki\"> (<a href=\"https://loinc.org/\">LOINC</a>#48002-0)</span></p><p><b>value</b>: Somatic <span style=\"background: LightGoldenRodYellow; margin: 4px; border: 1px solid khaki\"> (<a href=\"https://loinc.org/\">LOINC</a>#LA6684-0)</span></p></blockquote><blockquote><p><b>component</b></p><p><b>code</b>: Molecular Consequence <span style=\"background: LightGoldenRodYellow; margin: 4px; border: 1px solid khaki\"> (<a href=\"http://hl7.org/fhir/uv/genomics-reporting/STU2/CodeSystem-tbd-codes-cs.html\">To Be Determined Codes</a>#molecular-consequence)</span></p><p><b>value</b>: copy_number_loss <span style=\"background: LightGoldenRodYellow; margin: 4px; border: 1px solid khaki\"> (#SO:0001743)</span></p></blockquote><blockquote><p><b>component</b></p><p><b>code</b>: 62374-4 <span style=\"background: LightGoldenRodYellow; margin: 4px; border: 1px solid khaki\"> (<a href=\"https://loinc.org/\">LOINC</a>#62374-4)</span></p><p><b>value</b>: GRCh37 <span style=\"background: LightGoldenRodYellow; margin: 4px; border: 1px solid khaki\"> (<a href=\"https://loinc.org/\">LOINC</a>#LA14029-5)</span></p></blockquote></div>"
      },
      "status" : "final",
      "category" : [{
        "coding" : [{
          "system" : "http://terminology.hl7.org/CodeSystem/observation-category",
          "code" : "laboratory"
        }]
      }],
      "code" : {
        "coding" : [{
          "system" : "http://loinc.org",
          "code" : "69548-6"
        }]
      },
      "subject" : {
        "reference" : "Patient/gx-cancer-patient-adam-anyperson"
      },
      "effectiveDateTime" : "2019-04-01",
      "performer" : [{
        "reference" : "Practitioner/us-core-practitioner-owen-oncologist"
      }],
      "valueCodeableConcept" : {
        "coding" : [{
          "system" : "http://loinc.org",
          "code" : "LA9633-4",
          "display" : "Present"
        }]
      },
      "method" : {
        "coding" : [{
          "system" : "http://loinc.org",
          "code" : "LA26398-0",
          "display" : "Sequencing"
        }]
      },
      "component" : [{
        "code" : {
          "coding" : [{
            "system" : "http://loinc.org",
            "code" : "48018-6"
          }]
        },
        "valueCodeableConcept" : {
          "coding" : [{
            "system" : "http://www.genenames.org",
            "code" : "HGNC:1787",
            "display" : "CDKN2A"
          },
          {
            "system" : "https://www.ncbi.nlm.nih.gov/gene",
            "code" : "1029",
            "display" : "CDKN2A"
          }]
        }
      },
      {
        "code" : {
          "coding" : [{
            "system" : "http://loinc.org",
            "code" : "48002-0"
          }]
        },
        "valueCodeableConcept" : {
          "coding" : [{
            "system" : "http://loinc.org",
            "code" : "LA6684-0",
            "display" : "Somatic"
          }]
        }
      },
      {
        "code" : {
          "coding" : [{
            "system" : "http://hl7.org/fhir/uv/genomics-reporting/CodeSystem/tbd-codes-cs",
            "code" : "molecular-consequence"
          }]
        },
        "valueCodeableConcept" : {
          "coding" : [{
            "system" : "http://www.sequenceontology.org/",
            "code" : "SO:0001743",
            "display" : "copy_number_loss"
          }]
        }
      },
      {
        "code" : {
          "coding" : [{
            "system" : "http://loinc.org",
            "code" : "62374-4"
          }]
        },
        "valueCodeableConcept" : {
          "coding" : [{
            "system" : "http://loinc.org",
            "code" : "LA14029-5",
            "display" : "GRCh37"
          }]
        }
      }]
    }
  },
  {
    "fullUrl" : "http://example.org/fhir/Observation/gx-genomic-variant-somatic-cdkn2b-cnv",
    "resource" : {
      "resourceType" : "Observation",
      "id" : "gx-genomic-variant-somatic-cdkn2b-cnv",
      "meta" : {
        "profile" : ["http://hl7.org/fhir/us/mcode/StructureDefinition/mcode-genomic-variant"]
      },
      "text" : {
        "status" : "generated",
        "div" : "<div xmlns=\"http://www.w3.org/1999/xhtml\"><p><b>Generated Narrative: Observation</b><a name=\"gx-genomic-variant-somatic-cdkn2b-cnv\"> </a></p><div style=\"display: inline-block; background-color: #d9e0e7; padding: 6px; margin: 4px; border: 1px solid #8da1b4; border-radius: 5px; line-height: 60%\"><p style=\"margin-bottom: 0px\">Resource Observation &quot;gx-genomic-variant-somatic-cdkn2b-cnv&quot; </p><p style=\"margin-bottom: 0px\">Profile: <a href=\"StructureDefinition-mcode-genomic-variant.html\">Genomic Variant Profile</a></p></div><p><b>status</b>: final</p><p><b>category</b>: Laboratory <span style=\"background: LightGoldenRodYellow; margin: 4px; border: 1px solid khaki\"> (<a href=\"http://terminology.hl7.org/5.3.0/CodeSystem-observation-category.html\">Observation Category Codes</a>#laboratory)</span></p><p><b>code</b>: 69548-6 <span style=\"background: LightGoldenRodYellow; margin: 4px; border: 1px solid khaki\"> (<a href=\"https://loinc.org/\">LOINC</a>#69548-6)</span></p><p><b>subject</b>: <a href=\"#Patient_gx-cancer-patient-adam-anyperson\">See above (Patient/gx-cancer-patient-adam-anyperson)</a></p><p><b>effective</b>: 2019-04-01</p><p><b>performer</b>: <a href=\"Practitioner-us-core-practitioner-owen-oncologist.html\">Practitioner/us-core-practitioner-owen-oncologist</a> &quot; ONCOLOGIST&quot;</p><p><b>value</b>: Present <span style=\"background: LightGoldenRodYellow; margin: 4px; border: 1px solid khaki\"> (<a href=\"https://loinc.org/\">LOINC</a>#LA9633-4)</span></p><p><b>method</b>: Sequencing <span style=\"background: LightGoldenRodYellow; margin: 4px; border: 1px solid khaki\"> (<a href=\"https://loinc.org/\">LOINC</a>#LA26398-0)</span></p><blockquote><p><b>component</b></p><p><b>code</b>: 48018-6 <span style=\"background: LightGoldenRodYellow; margin: 4px; border: 1px solid khaki\"> (<a href=\"https://loinc.org/\">LOINC</a>#48018-6)</span></p><p><b>value</b>: CDKN2B <span style=\"background: LightGoldenRodYellow; margin: 4px; border: 1px solid khaki\"> (<a href=\"http://terminology.hl7.org/5.3.0/CodeSystem-v3-hgnc.html\">HUGO Gene Nomenclature Committee Genes</a>#HGNC:1788; gene#1030)</span></p></blockquote><blockquote><p><b>component</b></p><p><b>code</b>: 48002-0 <span style=\"background: LightGoldenRodYellow; margin: 4px; border: 1px solid khaki\"> (<a href=\"https://loinc.org/\">LOINC</a>#48002-0)</span></p><p><b>value</b>: Somatic <span style=\"background: LightGoldenRodYellow; margin: 4px; border: 1px solid khaki\"> (<a href=\"https://loinc.org/\">LOINC</a>#LA6684-0)</span></p></blockquote><blockquote><p><b>component</b></p><p><b>code</b>: Molecular Consequence <span style=\"background: LightGoldenRodYellow; margin: 4px; border: 1px solid khaki\"> (<a href=\"http://hl7.org/fhir/uv/genomics-reporting/STU2/CodeSystem-tbd-codes-cs.html\">To Be Determined Codes</a>#molecular-consequence)</span></p><p><b>value</b>: copy_number_loss <span style=\"background: LightGoldenRodYellow; margin: 4px; border: 1px solid khaki\"> (#SO:0001743)</span></p></blockquote><blockquote><p><b>component</b></p><p><b>code</b>: 62374-4 <span style=\"background: LightGoldenRodYellow; margin: 4px; border: 1px solid khaki\"> (<a href=\"https://loinc.org/\">LOINC</a>#62374-4)</span></p><p><b>value</b>: GRCh37 <span style=\"background: LightGoldenRodYellow; margin: 4px; border: 1px solid khaki\"> (<a href=\"https://loinc.org/\">LOINC</a>#LA14029-5)</span></p></blockquote></div>"
      },
      "status" : "final",
      "category" : [{
        "coding" : [{
          "system" : "http://terminology.hl7.org/CodeSystem/observation-category",
          "code" : "laboratory"
        }]
      }],
      "code" : {
        "coding" : [{
          "system" : "http://loinc.org",
          "code" : "69548-6"
        }]
      },
      "subject" : {
        "reference" : "Patient/gx-cancer-patient-adam-anyperson"
      },
      "effectiveDateTime" : "2019-04-01",
      "performer" : [{
        "reference" : "Practitioner/us-core-practitioner-owen-oncologist"
      }],
      "valueCodeableConcept" : {
        "coding" : [{
          "system" : "http://loinc.org",
          "code" : "LA9633-4",
          "display" : "Present"
        }]
      },
      "method" : {
        "coding" : [{
          "system" : "http://loinc.org",
          "code" : "LA26398-0",
          "display" : "Sequencing"
        }]
      },
      "component" : [{
        "code" : {
          "coding" : [{
            "system" : "http://loinc.org",
            "code" : "48018-6"
          }]
        },
        "valueCodeableConcept" : {
          "coding" : [{
            "system" : "http://www.genenames.org",
            "code" : "HGNC:1788",
            "display" : "CDKN2B"
          },
          {
            "system" : "https://www.ncbi.nlm.nih.gov/gene",
            "code" : "1030",
            "display" : "CDKN2B"
          }]
        }
      },
      {
        "code" : {
          "coding" : [{
            "system" : "http://loinc.org",
            "code" : "48002-0"
          }]
        },
        "valueCodeableConcept" : {
          "coding" : [{
            "system" : "http://loinc.org",
            "code" : "LA6684-0",
            "display" : "Somatic"
          }]
        }
      },
      {
        "code" : {
          "coding" : [{
            "system" : "http://hl7.org/fhir/uv/genomics-reporting/CodeSystem/tbd-codes-cs",
            "code" : "molecular-consequence"
          }]
        },
        "valueCodeableConcept" : {
          "coding" : [{
            "system" : "http://www.sequenceontology.org/",
            "code" : "SO:0001743",
            "display" : "copy_number_loss"
          }]
        }
      },
      {
        "code" : {
          "coding" : [{
            "system" : "http://loinc.org",
            "code" : "62374-4"
          }]
        },
        "valueCodeableConcept" : {
          "coding" : [{
            "system" : "http://loinc.org",
            "code" : "LA14029-5",
            "display" : "GRCh37"
          }]
        }
      }]
    }
  },
  {
    "fullUrl" : "http://example.org/fhir/Observation/gx-genomic-variant-somatic-kdm5d",
    "resource" : {
      "resourceType" : "Observation",
      "id" : "gx-genomic-variant-somatic-kdm5d",
      "meta" : {
        "profile" : ["http://hl7.org/fhir/us/mcode/StructureDefinition/mcode-genomic-variant"]
      },
      "text" : {
        "status" : "generated",
        "div" : "<div xmlns=\"http://www.w3.org/1999/xhtml\"><p><b>Generated Narrative: Observation</b><a name=\"gx-genomic-variant-somatic-kdm5d\"> </a></p><div style=\"display: inline-block; background-color: #d9e0e7; padding: 6px; margin: 4px; border: 1px solid #8da1b4; border-radius: 5px; line-height: 60%\"><p style=\"margin-bottom: 0px\">Resource Observation &quot;gx-genomic-variant-somatic-kdm5d&quot; </p><p style=\"margin-bottom: 0px\">Profile: <a href=\"StructureDefinition-mcode-genomic-variant.html\">Genomic Variant Profile</a></p></div><p><b>status</b>: final</p><p><b>category</b>: Laboratory <span style=\"background: LightGoldenRodYellow; margin: 4px; border: 1px solid khaki\"> (<a href=\"http://terminology.hl7.org/5.3.0/CodeSystem-observation-category.html\">Observation Category Codes</a>#laboratory)</span></p><p><b>code</b>: 69548-6 <span style=\"background: LightGoldenRodYellow; margin: 4px; border: 1px solid khaki\"> (<a href=\"https://loinc.org/\">LOINC</a>#69548-6)</span></p><p><b>subject</b>: <a href=\"#Patient_gx-cancer-patient-adam-anyperson\">See above (Patient/gx-cancer-patient-adam-anyperson)</a></p><p><b>effective</b>: 2019-04-01</p><p><b>performer</b>: <a href=\"Practitioner-us-core-practitioner-owen-oncologist.html\">Practitioner/us-core-practitioner-owen-oncologist</a> &quot; ONCOLOGIST&quot;</p><p><b>value</b>: Present <span style=\"background: LightGoldenRodYellow; margin: 4px; border: 1px solid khaki\"> (<a href=\"https://loinc.org/\">LOINC</a>#LA9633-4)</span></p><p><b>method</b>: Sequencing <span style=\"background: LightGoldenRodYellow; margin: 4px; border: 1px solid khaki\"> (<a href=\"https://loinc.org/\">LOINC</a>#LA26398-0)</span></p><blockquote><p><b>component</b></p><p><b>code</b>: 48018-6 <span style=\"background: LightGoldenRodYellow; margin: 4px; border: 1px solid khaki\"> (<a href=\"https://loinc.org/\">LOINC</a>#48018-6)</span></p><p><b>value</b>: KDM5D <span style=\"background: LightGoldenRodYellow; margin: 4px; border: 1px solid khaki\"> (<a href=\"http://terminology.hl7.org/5.3.0/CodeSystem-v3-hgnc.html\">HUGO Gene Nomenclature Committee Genes</a>#HGNC:11115; gene#8284)</span></p></blockquote><blockquote><p><b>component</b></p><p><b>code</b>: 48002-0 <span style=\"background: LightGoldenRodYellow; margin: 4px; border: 1px solid khaki\"> (<a href=\"https://loinc.org/\">LOINC</a>#48002-0)</span></p><p><b>value</b>: Somatic <span style=\"background: LightGoldenRodYellow; margin: 4px; border: 1px solid khaki\"> (<a href=\"https://loinc.org/\">LOINC</a>#LA6684-0)</span></p></blockquote><blockquote><p><b>component</b></p><p><b>code</b>: Molecular Consequence <span style=\"background: LightGoldenRodYellow; margin: 4px; border: 1px solid khaki\"> (<a href=\"http://hl7.org/fhir/uv/genomics-reporting/STU2/CodeSystem-tbd-codes-cs.html\">To Be Determined Codes</a>#molecular-consequence)</span></p><p><b>value</b>: copy_number_loss <span style=\"background: LightGoldenRodYellow; margin: 4px; border: 1px solid khaki\"> (#SO:0001743)</span></p></blockquote><blockquote><p><b>component</b></p><p><b>code</b>: 62374-4 <span style=\"background: LightGoldenRodYellow; margin: 4px; border: 1px solid khaki\"> (<a href=\"https://loinc.org/\">LOINC</a>#62374-4)</span></p><p><b>value</b>: GRCh37 <span style=\"background: LightGoldenRodYellow; margin: 4px; border: 1px solid khaki\"> (<a href=\"https://loinc.org/\">LOINC</a>#LA14029-5)</span></p></blockquote></div>"
      },
      "status" : "final",
      "category" : [{
        "coding" : [{
          "system" : "http://terminology.hl7.org/CodeSystem/observation-category",
          "code" : "laboratory"
        }]
      }],
      "code" : {
        "coding" : [{
          "system" : "http://loinc.org",
          "code" : "69548-6"
        }]
      },
      "subject" : {
        "reference" : "Patient/gx-cancer-patient-adam-anyperson"
      },
      "effectiveDateTime" : "2019-04-01",
      "performer" : [{
        "reference" : "Practitioner/us-core-practitioner-owen-oncologist"
      }],
      "valueCodeableConcept" : {
        "coding" : [{
          "system" : "http://loinc.org",
          "code" : "LA9633-4",
          "display" : "Present"
        }]
      },
      "method" : {
        "coding" : [{
          "system" : "http://loinc.org",
          "code" : "LA26398-0",
          "display" : "Sequencing"
        }]
      },
      "component" : [{
        "code" : {
          "coding" : [{
            "system" : "http://loinc.org",
            "code" : "48018-6"
          }]
        },
        "valueCodeableConcept" : {
          "coding" : [{
            "system" : "http://www.genenames.org",
            "code" : "HGNC:11115",
            "display" : "KDM5D"
          },
          {
            "system" : "https://www.ncbi.nlm.nih.gov/gene",
            "code" : "8284",
            "display" : "KDM5D"
          }]
        }
      },
      {
        "code" : {
          "coding" : [{
            "system" : "http://loinc.org",
            "code" : "48002-0"
          }]
        },
        "valueCodeableConcept" : {
          "coding" : [{
            "system" : "http://loinc.org",
            "code" : "LA6684-0",
            "display" : "Somatic"
          }]
        }
      },
      {
        "code" : {
          "coding" : [{
            "system" : "http://hl7.org/fhir/uv/genomics-reporting/CodeSystem/tbd-codes-cs",
            "code" : "molecular-consequence"
          }]
        },
        "valueCodeableConcept" : {
          "coding" : [{
            "system" : "http://www.sequenceontology.org/",
            "code" : "SO:0001743",
            "display" : "copy_number_loss"
          }]
        }
      },
      {
        "code" : {
          "coding" : [{
            "system" : "http://loinc.org",
            "code" : "62374-4"
          }]
        },
        "valueCodeableConcept" : {
          "coding" : [{
            "system" : "http://loinc.org",
            "code" : "LA14029-5",
            "display" : "GRCh37"
          }]
        }
      }]
    }
  },
  {
    "fullUrl" : "http://example.org/fhir/Observation/gx-genomic-variant-somatic-mtap",
    "resource" : {
      "resourceType" : "Observation",
      "id" : "gx-genomic-variant-somatic-mtap",
      "meta" : {
        "profile" : ["http://hl7.org/fhir/us/mcode/StructureDefinition/mcode-genomic-variant"]
      },
      "text" : {
        "status" : "generated",
        "div" : "<div xmlns=\"http://www.w3.org/1999/xhtml\"><p><b>Generated Narrative: Observation</b><a name=\"gx-genomic-variant-somatic-mtap\"> </a></p><div style=\"display: inline-block; background-color: #d9e0e7; padding: 6px; margin: 4px; border: 1px solid #8da1b4; border-radius: 5px; line-height: 60%\"><p style=\"margin-bottom: 0px\">Resource Observation &quot;gx-genomic-variant-somatic-mtap&quot; </p><p style=\"margin-bottom: 0px\">Profile: <a href=\"StructureDefinition-mcode-genomic-variant.html\">Genomic Variant Profile</a></p></div><p><b>status</b>: final</p><p><b>category</b>: Laboratory <span style=\"background: LightGoldenRodYellow; margin: 4px; border: 1px solid khaki\"> (<a href=\"http://terminology.hl7.org/5.3.0/CodeSystem-observation-category.html\">Observation Category Codes</a>#laboratory)</span></p><p><b>code</b>: 69548-6 <span style=\"background: LightGoldenRodYellow; margin: 4px; border: 1px solid khaki\"> (<a href=\"https://loinc.org/\">LOINC</a>#69548-6)</span></p><p><b>subject</b>: <a href=\"#Patient_gx-cancer-patient-adam-anyperson\">See above (Patient/gx-cancer-patient-adam-anyperson)</a></p><p><b>effective</b>: 2019-04-01</p><p><b>performer</b>: <a href=\"Practitioner-us-core-practitioner-owen-oncologist.html\">Practitioner/us-core-practitioner-owen-oncologist</a> &quot; ONCOLOGIST&quot;</p><p><b>value</b>: Present <span style=\"background: LightGoldenRodYellow; margin: 4px; border: 1px solid khaki\"> (<a href=\"https://loinc.org/\">LOINC</a>#LA9633-4)</span></p><p><b>method</b>: Sequencing <span style=\"background: LightGoldenRodYellow; margin: 4px; border: 1px solid khaki\"> (<a href=\"https://loinc.org/\">LOINC</a>#LA26398-0)</span></p><blockquote><p><b>component</b></p><p><b>code</b>: 48018-6 <span style=\"background: LightGoldenRodYellow; margin: 4px; border: 1px solid khaki\"> (<a href=\"https://loinc.org/\">LOINC</a>#48018-6)</span></p><p><b>value</b>: MTAP <span style=\"background: LightGoldenRodYellow; margin: 4px; border: 1px solid khaki\"> (<a href=\"http://terminology.hl7.org/5.3.0/CodeSystem-v3-hgnc.html\">HUGO Gene Nomenclature Committee Genes</a>#HGNC:7413; gene#4507)</span></p></blockquote><blockquote><p><b>component</b></p><p><b>code</b>: 48002-0 <span style=\"background: LightGoldenRodYellow; margin: 4px; border: 1px solid khaki\"> (<a href=\"https://loinc.org/\">LOINC</a>#48002-0)</span></p><p><b>value</b>: Somatic <span style=\"background: LightGoldenRodYellow; margin: 4px; border: 1px solid khaki\"> (<a href=\"https://loinc.org/\">LOINC</a>#LA6684-0)</span></p></blockquote><blockquote><p><b>component</b></p><p><b>code</b>: Molecular Consequence <span style=\"background: LightGoldenRodYellow; margin: 4px; border: 1px solid khaki\"> (<a href=\"http://hl7.org/fhir/uv/genomics-reporting/STU2/CodeSystem-tbd-codes-cs.html\">To Be Determined Codes</a>#molecular-consequence)</span></p><p><b>value</b>: copy_number_loss <span style=\"background: LightGoldenRodYellow; margin: 4px; border: 1px solid khaki\"> (#SO:0001743)</span></p></blockquote><blockquote><p><b>component</b></p><p><b>code</b>: 62374-4 <span style=\"background: LightGoldenRodYellow; margin: 4px; border: 1px solid khaki\"> (<a href=\"https://loinc.org/\">LOINC</a>#62374-4)</span></p><p><b>value</b>: GRCh37 <span style=\"background: LightGoldenRodYellow; margin: 4px; border: 1px solid khaki\"> (<a href=\"https://loinc.org/\">LOINC</a>#LA14029-5)</span></p></blockquote></div>"
      },
      "status" : "final",
      "category" : [{
        "coding" : [{
          "system" : "http://terminology.hl7.org/CodeSystem/observation-category",
          "code" : "laboratory"
        }]
      }],
      "code" : {
        "coding" : [{
          "system" : "http://loinc.org",
          "code" : "69548-6"
        }]
      },
      "subject" : {
        "reference" : "Patient/gx-cancer-patient-adam-anyperson"
      },
      "effectiveDateTime" : "2019-04-01",
      "performer" : [{
        "reference" : "Practitioner/us-core-practitioner-owen-oncologist"
      }],
      "valueCodeableConcept" : {
        "coding" : [{
          "system" : "http://loinc.org",
          "code" : "LA9633-4",
          "display" : "Present"
        }]
      },
      "method" : {
        "coding" : [{
          "system" : "http://loinc.org",
          "code" : "LA26398-0",
          "display" : "Sequencing"
        }]
      },
      "component" : [{
        "code" : {
          "coding" : [{
            "system" : "http://loinc.org",
            "code" : "48018-6"
          }]
        },
        "valueCodeableConcept" : {
          "coding" : [{
            "system" : "http://www.genenames.org",
            "code" : "HGNC:7413",
            "display" : "MTAP"
          },
          {
            "system" : "https://www.ncbi.nlm.nih.gov/gene",
            "code" : "4507",
            "display" : "MTAP"
          }]
        }
      },
      {
        "code" : {
          "coding" : [{
            "system" : "http://loinc.org",
            "code" : "48002-0"
          }]
        },
        "valueCodeableConcept" : {
          "coding" : [{
            "system" : "http://loinc.org",
            "code" : "LA6684-0",
            "display" : "Somatic"
          }]
        }
      },
      {
        "code" : {
          "coding" : [{
            "system" : "http://hl7.org/fhir/uv/genomics-reporting/CodeSystem/tbd-codes-cs",
            "code" : "molecular-consequence"
          }]
        },
        "valueCodeableConcept" : {
          "coding" : [{
            "system" : "http://www.sequenceontology.org/",
            "code" : "SO:0001743",
            "display" : "copy_number_loss"
          }]
        }
      },
      {
        "code" : {
          "coding" : [{
            "system" : "http://loinc.org",
            "code" : "62374-4"
          }]
        },
        "valueCodeableConcept" : {
          "coding" : [{
            "system" : "http://loinc.org",
            "code" : "LA14029-5",
            "display" : "GRCh37"
          }]
        }
      }]
    }
  },
  {
    "fullUrl" : "http://example.org/fhir/Observation/gx-genomic-variant-somatic-mycn",
    "resource" : {
      "resourceType" : "Observation",
      "id" : "gx-genomic-variant-somatic-mycn",
      "meta" : {
        "profile" : ["http://hl7.org/fhir/us/mcode/StructureDefinition/mcode-genomic-variant"]
      },
      "text" : {
        "status" : "generated",
        "div" : "<div xmlns=\"http://www.w3.org/1999/xhtml\"><p><b>Generated Narrative: Observation</b><a name=\"gx-genomic-variant-somatic-mycn\"> </a></p><div style=\"display: inline-block; background-color: #d9e0e7; padding: 6px; margin: 4px; border: 1px solid #8da1b4; border-radius: 5px; line-height: 60%\"><p style=\"margin-bottom: 0px\">Resource Observation &quot;gx-genomic-variant-somatic-mycn&quot; </p><p style=\"margin-bottom: 0px\">Profile: <a href=\"StructureDefinition-mcode-genomic-variant.html\">Genomic Variant Profile</a></p></div><p><b>status</b>: final</p><p><b>category</b>: Laboratory <span style=\"background: LightGoldenRodYellow; margin: 4px; border: 1px solid khaki\"> (<a href=\"http://terminology.hl7.org/5.3.0/CodeSystem-observation-category.html\">Observation Category Codes</a>#laboratory)</span></p><p><b>code</b>: 69548-6 <span style=\"background: LightGoldenRodYellow; margin: 4px; border: 1px solid khaki\"> (<a href=\"https://loinc.org/\">LOINC</a>#69548-6)</span></p><p><b>subject</b>: <a href=\"#Patient_gx-cancer-patient-adam-anyperson\">See above (Patient/gx-cancer-patient-adam-anyperson)</a></p><p><b>effective</b>: 2019-04-01</p><p><b>performer</b>: <a href=\"Practitioner-us-core-practitioner-owen-oncologist.html\">Practitioner/us-core-practitioner-owen-oncologist</a> &quot; ONCOLOGIST&quot;</p><p><b>value</b>: Present <span style=\"background: LightGoldenRodYellow; margin: 4px; border: 1px solid khaki\"> (<a href=\"https://loinc.org/\">LOINC</a>#LA9633-4)</span></p><p><b>method</b>: Sequencing <span style=\"background: LightGoldenRodYellow; margin: 4px; border: 1px solid khaki\"> (<a href=\"https://loinc.org/\">LOINC</a>#LA26398-0)</span></p><blockquote><p><b>component</b></p><p><b>code</b>: 48018-6 <span style=\"background: LightGoldenRodYellow; margin: 4px; border: 1px solid khaki\"> (<a href=\"https://loinc.org/\">LOINC</a>#48018-6)</span></p><p><b>value</b>: MYCN <span style=\"background: LightGoldenRodYellow; margin: 4px; border: 1px solid khaki\"> (<a href=\"http://terminology.hl7.org/5.3.0/CodeSystem-v3-hgnc.html\">HUGO Gene Nomenclature Committee Genes</a>#HGNC:7559; gene#4613)</span></p></blockquote><blockquote><p><b>component</b></p><p><b>code</b>: 48002-0 <span style=\"background: LightGoldenRodYellow; margin: 4px; border: 1px solid khaki\"> (<a href=\"https://loinc.org/\">LOINC</a>#48002-0)</span></p><p><b>value</b>: Somatic <span style=\"background: LightGoldenRodYellow; margin: 4px; border: 1px solid khaki\"> (<a href=\"https://loinc.org/\">LOINC</a>#LA6684-0)</span></p></blockquote><blockquote><p><b>component</b></p><p><b>code</b>: Molecular Consequence <span style=\"background: LightGoldenRodYellow; margin: 4px; border: 1px solid khaki\"> (<a href=\"http://hl7.org/fhir/uv/genomics-reporting/STU2/CodeSystem-tbd-codes-cs.html\">To Be Determined Codes</a>#molecular-consequence)</span></p><p><b>value</b>: copy_number_gain <span style=\"background: LightGoldenRodYellow; margin: 4px; border: 1px solid khaki\"> (#SO:0001742)</span></p></blockquote><blockquote><p><b>component</b></p><p><b>code</b>: 62374-4 <span style=\"background: LightGoldenRodYellow; margin: 4px; border: 1px solid khaki\"> (<a href=\"https://loinc.org/\">LOINC</a>#62374-4)</span></p><p><b>value</b>: GRCh37 <span style=\"background: LightGoldenRodYellow; margin: 4px; border: 1px solid khaki\"> (<a href=\"https://loinc.org/\">LOINC</a>#LA14029-5)</span></p></blockquote></div>"
      },
      "status" : "final",
      "category" : [{
        "coding" : [{
          "system" : "http://terminology.hl7.org/CodeSystem/observation-category",
          "code" : "laboratory"
        }]
      }],
      "code" : {
        "coding" : [{
          "system" : "http://loinc.org",
          "code" : "69548-6"
        }]
      },
      "subject" : {
        "reference" : "Patient/gx-cancer-patient-adam-anyperson"
      },
      "effectiveDateTime" : "2019-04-01",
      "performer" : [{
        "reference" : "Practitioner/us-core-practitioner-owen-oncologist"
      }],
      "valueCodeableConcept" : {
        "coding" : [{
          "system" : "http://loinc.org",
          "code" : "LA9633-4",
          "display" : "Present"
        }]
      },
      "method" : {
        "coding" : [{
          "system" : "http://loinc.org",
          "code" : "LA26398-0",
          "display" : "Sequencing"
        }]
      },
      "component" : [{
        "code" : {
          "coding" : [{
            "system" : "http://loinc.org",
            "code" : "48018-6"
          }]
        },
        "valueCodeableConcept" : {
          "coding" : [{
            "system" : "http://www.genenames.org",
            "code" : "HGNC:7559",
            "display" : "MYCN"
          },
          {
            "system" : "https://www.ncbi.nlm.nih.gov/gene",
            "code" : "4613",
            "display" : "MYCN"
          }]
        }
      },
      {
        "code" : {
          "coding" : [{
            "system" : "http://loinc.org",
            "code" : "48002-0"
          }]
        },
        "valueCodeableConcept" : {
          "coding" : [{
            "system" : "http://loinc.org",
            "code" : "LA6684-0",
            "display" : "Somatic"
          }]
        }
      },
      {
        "code" : {
          "coding" : [{
            "system" : "http://hl7.org/fhir/uv/genomics-reporting/CodeSystem/tbd-codes-cs",
            "code" : "molecular-consequence"
          }]
        },
        "valueCodeableConcept" : {
          "coding" : [{
            "system" : "http://www.sequenceontology.org/",
            "code" : "SO:0001742",
            "display" : "copy_number_gain"
          }]
        }
      },
      {
        "code" : {
          "coding" : [{
            "system" : "http://loinc.org",
            "code" : "62374-4"
          }]
        },
        "valueCodeableConcept" : {
          "coding" : [{
            "system" : "http://loinc.org",
            "code" : "LA14029-5",
            "display" : "GRCh37"
          }]
        }
      }]
    }
  },
  {
    "fullUrl" : "http://example.org/fhir/Observation/gx-genomic-variant-somatic-pof1b",
    "resource" : {
      "resourceType" : "Observation",
      "id" : "gx-genomic-variant-somatic-pof1b",
      "meta" : {
        "profile" : ["http://hl7.org/fhir/us/mcode/StructureDefinition/mcode-genomic-variant"]
      },
      "text" : {
        "status" : "generated",
        "div" : "<div xmlns=\"http://www.w3.org/1999/xhtml\"><p><b>Generated Narrative: Observation</b><a name=\"gx-genomic-variant-somatic-pof1b\"> </a></p><div style=\"display: inline-block; background-color: #d9e0e7; padding: 6px; margin: 4px; border: 1px solid #8da1b4; border-radius: 5px; line-height: 60%\"><p style=\"margin-bottom: 0px\">Resource Observation &quot;gx-genomic-variant-somatic-pof1b&quot; </p><p style=\"margin-bottom: 0px\">Profile: <a href=\"StructureDefinition-mcode-genomic-variant.html\">Genomic Variant Profile</a></p></div><p><b>status</b>: final</p><p><b>category</b>: Laboratory <span style=\"background: LightGoldenRodYellow; margin: 4px; border: 1px solid khaki\"> (<a href=\"http://terminology.hl7.org/5.3.0/CodeSystem-observation-category.html\">Observation Category Codes</a>#laboratory)</span></p><p><b>code</b>: 69548-6 <span style=\"background: LightGoldenRodYellow; margin: 4px; border: 1px solid khaki\"> (<a href=\"https://loinc.org/\">LOINC</a>#69548-6)</span></p><p><b>subject</b>: <a href=\"#Patient_gx-cancer-patient-adam-anyperson\">See above (Patient/gx-cancer-patient-adam-anyperson)</a></p><p><b>effective</b>: 2019-04-01</p><p><b>performer</b>: <a href=\"Practitioner-us-core-practitioner-owen-oncologist.html\">Practitioner/us-core-practitioner-owen-oncologist</a> &quot; ONCOLOGIST&quot;</p><p><b>value</b>: Present <span style=\"background: LightGoldenRodYellow; margin: 4px; border: 1px solid khaki\"> (<a href=\"https://loinc.org/\">LOINC</a>#LA9633-4)</span></p><p><b>method</b>: Sequencing <span style=\"background: LightGoldenRodYellow; margin: 4px; border: 1px solid khaki\"> (<a href=\"https://loinc.org/\">LOINC</a>#LA26398-0)</span></p><blockquote><p><b>component</b></p><p><b>code</b>: 48018-6 <span style=\"background: LightGoldenRodYellow; margin: 4px; border: 1px solid khaki\"> (<a href=\"https://loinc.org/\">LOINC</a>#48018-6)</span></p><p><b>value</b>: POF1B <span style=\"background: LightGoldenRodYellow; margin: 4px; border: 1px solid khaki\"> (<a href=\"http://terminology.hl7.org/5.3.0/CodeSystem-v3-hgnc.html\">HUGO Gene Nomenclature Committee Genes</a>#HGNC:13711; gene#79983)</span></p></blockquote><blockquote><p><b>component</b></p><p><b>code</b>: 48002-0 <span style=\"background: LightGoldenRodYellow; margin: 4px; border: 1px solid khaki\"> (<a href=\"https://loinc.org/\">LOINC</a>#48002-0)</span></p><p><b>value</b>: Somatic <span style=\"background: LightGoldenRodYellow; margin: 4px; border: 1px solid khaki\"> (<a href=\"https://loinc.org/\">LOINC</a>#LA6684-0)</span></p></blockquote><blockquote><p><b>component</b></p><p><b>code</b>: Molecular Consequence <span style=\"background: LightGoldenRodYellow; margin: 4px; border: 1px solid khaki\"> (<a href=\"http://hl7.org/fhir/uv/genomics-reporting/STU2/CodeSystem-tbd-codes-cs.html\">To Be Determined Codes</a>#molecular-consequence)</span></p><p><b>value</b>: missense_variant <span style=\"background: LightGoldenRodYellow; margin: 4px; border: 1px solid khaki\"> (#SO:0001583)</span></p></blockquote><blockquote><p><b>component</b></p><p><b>code</b>: 51958-7 <span style=\"background: LightGoldenRodYellow; margin: 4px; border: 1px solid khaki\"> (<a href=\"https://loinc.org/\">LOINC</a>#51958-7)</span></p><p><b>value</b>: NM_004656 <span style=\"background: LightGoldenRodYellow; margin: 4px; border: 1px solid khaki\"> (<a href=\"http://terminology.hl7.org/5.3.0/CodeSystem-v3-refSeq.html\">Gene Reference Sequence Collection</a>#NM_004656)</span></p></blockquote><blockquote><p><b>component</b></p><p><b>code</b>: 48004-6 <span style=\"background: LightGoldenRodYellow; margin: 4px; border: 1px solid khaki\"> (<a href=\"https://loinc.org/\">LOINC</a>#48004-6)</span></p><p><b>value</b>: NM_001307940.2:c.430C&gt;T <span style=\"background: LightGoldenRodYellow; margin: 4px; border: 1px solid khaki\"> (<a href=\"http://terminology.hl7.org/5.3.0/CodeSystem-v3-hgvs.html\">Human Genome Variation Society nomenclature</a>#NM_001307940.2:c.430C&gt;T)</span></p></blockquote><blockquote><p><b>component</b></p><p><b>code</b>: 48005-3 <span style=\"background: LightGoldenRodYellow; margin: 4px; border: 1px solid khaki\"> (<a href=\"https://loinc.org/\">LOINC</a>#48005-3)</span></p><p><b>value</b>: NP_001294869.1:p.(Pro144Ser) <span style=\"background: LightGoldenRodYellow; margin: 4px; border: 1px solid khaki\"> (<a href=\"http://terminology.hl7.org/5.3.0/CodeSystem-v3-hgvs.html\">Human Genome Variation Society nomenclature</a>#NP_001294869.1:p.(Pro144Ser))</span></p></blockquote><blockquote><p><b>component</b></p><p><b>code</b>: 81258-6 <span style=\"background: LightGoldenRodYellow; margin: 4px; border: 1px solid khaki\"> (<a href=\"https://loinc.org/\">LOINC</a>#81258-6)</span></p><p><b>value</b>: 78.6 %<span style=\"background: LightGoldenRodYellow\"> (Details: UCUM code % = '%')</span></p></blockquote><blockquote><p><b>component</b></p><p><b>code</b>: 62374-4 <span style=\"background: LightGoldenRodYellow; margin: 4px; border: 1px solid khaki\"> (<a href=\"https://loinc.org/\">LOINC</a>#62374-4)</span></p><p><b>value</b>: GRCh37 <span style=\"background: LightGoldenRodYellow; margin: 4px; border: 1px solid khaki\"> (<a href=\"https://loinc.org/\">LOINC</a>#LA14029-5)</span></p></blockquote></div>"
      },
      "status" : "final",
      "category" : [{
        "coding" : [{
          "system" : "http://terminology.hl7.org/CodeSystem/observation-category",
          "code" : "laboratory"
        }]
      }],
      "code" : {
        "coding" : [{
          "system" : "http://loinc.org",
          "code" : "69548-6"
        }]
      },
      "subject" : {
        "reference" : "Patient/gx-cancer-patient-adam-anyperson"
      },
      "effectiveDateTime" : "2019-04-01",
      "performer" : [{
        "reference" : "Practitioner/us-core-practitioner-owen-oncologist"
      }],
      "valueCodeableConcept" : {
        "coding" : [{
          "system" : "http://loinc.org",
          "code" : "LA9633-4",
          "display" : "Present"
        }]
      },
      "method" : {
        "coding" : [{
          "system" : "http://loinc.org",
          "code" : "LA26398-0",
          "display" : "Sequencing"
        }]
      },
      "component" : [{
        "code" : {
          "coding" : [{
            "system" : "http://loinc.org",
            "code" : "48018-6"
          }]
        },
        "valueCodeableConcept" : {
          "coding" : [{
            "system" : "http://www.genenames.org",
            "code" : "HGNC:13711",
            "display" : "POF1B"
          },
          {
            "system" : "https://www.ncbi.nlm.nih.gov/gene",
            "code" : "79983",
            "display" : "POF1B"
          }]
        }
      },
      {
        "code" : {
          "coding" : [{
            "system" : "http://loinc.org",
            "code" : "48002-0"
          }]
        },
        "valueCodeableConcept" : {
          "coding" : [{
            "system" : "http://loinc.org",
            "code" : "LA6684-0",
            "display" : "Somatic"
          }]
        }
      },
      {
        "code" : {
          "coding" : [{
            "system" : "http://hl7.org/fhir/uv/genomics-reporting/CodeSystem/tbd-codes-cs",
            "code" : "molecular-consequence"
          }]
        },
        "valueCodeableConcept" : {
          "coding" : [{
            "system" : "http://www.sequenceontology.org/",
            "code" : "SO:0001583",
            "display" : "missense_variant"
          }]
        }
      },
      {
        "code" : {
          "coding" : [{
            "system" : "http://loinc.org",
            "code" : "51958-7"
          }]
        },
        "valueCodeableConcept" : {
          "coding" : [{
            "system" : "http://www.ncbi.nlm.nih.gov/refseq",
            "code" : "NM_004656",
            "display" : "NM_004656"
          }]
        }
      },
      {
        "code" : {
          "coding" : [{
            "system" : "http://loinc.org",
            "code" : "48004-6"
          }]
        },
        "valueCodeableConcept" : {
          "coding" : [{
            "system" : "http://varnomen.hgvs.org",
            "code" : "NM_001307940.2:c.430C>T",
            "display" : "NM_001307940.2:c.430C>T"
          }]
        }
      },
      {
        "code" : {
          "coding" : [{
            "system" : "http://loinc.org",
            "code" : "48005-3"
          }]
        },
        "valueCodeableConcept" : {
          "coding" : [{
            "system" : "http://varnomen.hgvs.org",
            "code" : "NP_001294869.1:p.(Pro144Ser)",
            "display" : "NP_001294869.1:p.(Pro144Ser)"
          }]
        }
      },
      {
        "code" : {
          "coding" : [{
            "system" : "http://loinc.org",
            "code" : "81258-6"
          }]
        },
        "valueQuantity" : {
          "value" : 78.6,
          "unit" : "%",
          "system" : "http://unitsofmeasure.org",
          "code" : "%"
        }
      },
      {
        "code" : {
          "coding" : [{
            "system" : "http://loinc.org",
            "code" : "62374-4"
          }]
        },
        "valueCodeableConcept" : {
          "coding" : [{
            "system" : "http://loinc.org",
            "code" : "LA14029-5",
            "display" : "GRCh37"
          }]
        }
      }]
    }
  },
  {
    "fullUrl" : "http://example.org/fhir/Observation/gx-genomic-variant-somatic-polrmt",
    "resource" : {
      "resourceType" : "Observation",
      "id" : "gx-genomic-variant-somatic-polrmt",
      "meta" : {
        "profile" : ["http://hl7.org/fhir/us/mcode/StructureDefinition/mcode-genomic-variant"]
      },
      "text" : {
        "status" : "generated",
        "div" : "<div xmlns=\"http://www.w3.org/1999/xhtml\"><p><b>Generated Narrative: Observation</b><a name=\"gx-genomic-variant-somatic-polrmt\"> </a></p><div style=\"display: inline-block; background-color: #d9e0e7; padding: 6px; margin: 4px; border: 1px solid #8da1b4; border-radius: 5px; line-height: 60%\"><p style=\"margin-bottom: 0px\">Resource Observation &quot;gx-genomic-variant-somatic-polrmt&quot; </p><p style=\"margin-bottom: 0px\">Profile: <a href=\"StructureDefinition-mcode-genomic-variant.html\">Genomic Variant Profile</a></p></div><p><b>status</b>: final</p><p><b>category</b>: Laboratory <span style=\"background: LightGoldenRodYellow; margin: 4px; border: 1px solid khaki\"> (<a href=\"http://terminology.hl7.org/5.3.0/CodeSystem-observation-category.html\">Observation Category Codes</a>#laboratory)</span></p><p><b>code</b>: 69548-6 <span style=\"background: LightGoldenRodYellow; margin: 4px; border: 1px solid khaki\"> (<a href=\"https://loinc.org/\">LOINC</a>#69548-6)</span></p><p><b>subject</b>: <a href=\"#Patient_gx-cancer-patient-adam-anyperson\">See above (Patient/gx-cancer-patient-adam-anyperson)</a></p><p><b>effective</b>: 2019-04-01</p><p><b>performer</b>: <a href=\"Practitioner-us-core-practitioner-owen-oncologist.html\">Practitioner/us-core-practitioner-owen-oncologist</a> &quot; ONCOLOGIST&quot;</p><p><b>value</b>: Present <span style=\"background: LightGoldenRodYellow; margin: 4px; border: 1px solid khaki\"> (<a href=\"https://loinc.org/\">LOINC</a>#LA9633-4)</span></p><p><b>method</b>: Sequencing <span style=\"background: LightGoldenRodYellow; margin: 4px; border: 1px solid khaki\"> (<a href=\"https://loinc.org/\">LOINC</a>#LA26398-0)</span></p><blockquote><p><b>component</b></p><p><b>code</b>: 48018-6 <span style=\"background: LightGoldenRodYellow; margin: 4px; border: 1px solid khaki\"> (<a href=\"https://loinc.org/\">LOINC</a>#48018-6)</span></p><p><b>value</b>: POLRMT <span style=\"background: LightGoldenRodYellow; margin: 4px; border: 1px solid khaki\"> (gene#5442)</span></p></blockquote><blockquote><p><b>component</b></p><p><b>code</b>: 48002-0 <span style=\"background: LightGoldenRodYellow; margin: 4px; border: 1px solid khaki\"> (<a href=\"https://loinc.org/\">LOINC</a>#48002-0)</span></p><p><b>value</b>: Somatic <span style=\"background: LightGoldenRodYellow; margin: 4px; border: 1px solid khaki\"> (<a href=\"https://loinc.org/\">LOINC</a>#LA6684-0)</span></p></blockquote><blockquote><p><b>component</b></p><p><b>code</b>: Molecular Consequence <span style=\"background: LightGoldenRodYellow; margin: 4px; border: 1px solid khaki\"> (<a href=\"http://hl7.org/fhir/uv/genomics-reporting/STU2/CodeSystem-tbd-codes-cs.html\">To Be Determined Codes</a>#molecular-consequence)</span></p><p><b>value</b>: missense_variant <span style=\"background: LightGoldenRodYellow; margin: 4px; border: 1px solid khaki\"> (#SO:0001583)</span></p></blockquote><blockquote><p><b>component</b></p><p><b>code</b>: 51958-7 <span style=\"background: LightGoldenRodYellow; margin: 4px; border: 1px solid khaki\"> (<a href=\"https://loinc.org/\">LOINC</a>#51958-7)</span></p><p><b>value</b>: NM_005035 <span style=\"background: LightGoldenRodYellow; margin: 4px; border: 1px solid khaki\"> (<a href=\"http://terminology.hl7.org/5.3.0/CodeSystem-v3-refSeq.html\">Gene Reference Sequence Collection</a>#NM_004656)</span></p></blockquote><blockquote><p><b>component</b></p><p><b>code</b>: 48004-6 <span style=\"background: LightGoldenRodYellow; margin: 4px; border: 1px solid khaki\"> (<a href=\"https://loinc.org/\">LOINC</a>#48004-6)</span></p><p><b>value</b>: NM_005035.4:c.598G&gt;A <span style=\"background: LightGoldenRodYellow; margin: 4px; border: 1px solid khaki\"> (<a href=\"http://terminology.hl7.org/5.3.0/CodeSystem-v3-hgvs.html\">Human Genome Variation Society nomenclature</a>#NM_005035.4:c.598G&gt;A)</span></p></blockquote><blockquote><p><b>component</b></p><p><b>code</b>: 48005-3 <span style=\"background: LightGoldenRodYellow; margin: 4px; border: 1px solid khaki\"> (<a href=\"https://loinc.org/\">LOINC</a>#48005-3)</span></p><p><b>value</b>: NP_005026.3:p.(Gly200Arg) <span style=\"background: LightGoldenRodYellow; margin: 4px; border: 1px solid khaki\"> (<a href=\"http://terminology.hl7.org/5.3.0/CodeSystem-v3-hgvs.html\">Human Genome Variation Society nomenclature</a>#NP_005026.3:p.(Gly200Arg))</span></p></blockquote><blockquote><p><b>component</b></p><p><b>code</b>: 81258-6 <span style=\"background: LightGoldenRodYellow; margin: 4px; border: 1px solid khaki\"> (<a href=\"https://loinc.org/\">LOINC</a>#81258-6)</span></p><p><b>value</b>: 75.6 %<span style=\"background: LightGoldenRodYellow\"> (Details: UCUM code % = '%')</span></p></blockquote><blockquote><p><b>component</b></p><p><b>code</b>: 62374-4 <span style=\"background: LightGoldenRodYellow; margin: 4px; border: 1px solid khaki\"> (<a href=\"https://loinc.org/\">LOINC</a>#62374-4)</span></p><p><b>value</b>: GRCh37 <span style=\"background: LightGoldenRodYellow; margin: 4px; border: 1px solid khaki\"> (<a href=\"https://loinc.org/\">LOINC</a>#LA14029-5)</span></p></blockquote></div>"
      },
      "status" : "final",
      "category" : [{
        "coding" : [{
          "system" : "http://terminology.hl7.org/CodeSystem/observation-category",
          "code" : "laboratory"
        }]
      }],
      "code" : {
        "coding" : [{
          "system" : "http://loinc.org",
          "code" : "69548-6"
        }]
      },
      "subject" : {
        "reference" : "Patient/gx-cancer-patient-adam-anyperson"
      },
      "effectiveDateTime" : "2019-04-01",
      "performer" : [{
        "reference" : "Practitioner/us-core-practitioner-owen-oncologist"
      }],
      "valueCodeableConcept" : {
        "coding" : [{
          "system" : "http://loinc.org",
          "code" : "LA9633-4",
          "display" : "Present"
        }]
      },
      "method" : {
        "coding" : [{
          "system" : "http://loinc.org",
          "code" : "LA26398-0",
          "display" : "Sequencing"
        }]
      },
      "component" : [{
        "code" : {
          "coding" : [{
            "system" : "http://loinc.org",
            "code" : "48018-6"
          }]
        },
        "valueCodeableConcept" : {
          "coding" : [{
            "system" : "https://www.ncbi.nlm.nih.gov/gene",
            "code" : "5442",
            "display" : "POLRMT"
          }]
        }
      },
      {
        "code" : {
          "coding" : [{
            "system" : "http://loinc.org",
            "code" : "48002-0"
          }]
        },
        "valueCodeableConcept" : {
          "coding" : [{
            "system" : "http://loinc.org",
            "code" : "LA6684-0",
            "display" : "Somatic"
          }]
        }
      },
      {
        "code" : {
          "coding" : [{
            "system" : "http://hl7.org/fhir/uv/genomics-reporting/CodeSystem/tbd-codes-cs",
            "code" : "molecular-consequence"
          }]
        },
        "valueCodeableConcept" : {
          "coding" : [{
            "system" : "http://www.sequenceontology.org/",
            "code" : "SO:0001583",
            "display" : "missense_variant"
          }]
        }
      },
      {
        "code" : {
          "coding" : [{
            "system" : "http://loinc.org",
            "code" : "51958-7"
          }]
        },
        "valueCodeableConcept" : {
          "coding" : [{
            "system" : "http://www.ncbi.nlm.nih.gov/refseq",
            "code" : "NM_004656",
            "display" : "NM_005035"
          }]
        }
      },
      {
        "code" : {
          "coding" : [{
            "system" : "http://loinc.org",
            "code" : "48004-6"
          }]
        },
        "valueCodeableConcept" : {
          "coding" : [{
            "system" : "http://varnomen.hgvs.org",
            "code" : "NM_005035.4:c.598G>A",
            "display" : "NM_005035.4:c.598G>A"
          }]
        }
      },
      {
        "code" : {
          "coding" : [{
            "system" : "http://loinc.org",
            "code" : "48005-3"
          }]
        },
        "valueCodeableConcept" : {
          "coding" : [{
            "system" : "http://varnomen.hgvs.org",
            "code" : "NP_005026.3:p.(Gly200Arg)",
            "display" : "NP_005026.3:p.(Gly200Arg)"
          }]
        }
      },
      {
        "code" : {
          "coding" : [{
            "system" : "http://loinc.org",
            "code" : "81258-6"
          }]
        },
        "valueQuantity" : {
          "value" : 75.6,
          "unit" : "%",
          "system" : "http://unitsofmeasure.org",
          "code" : "%"
        }
      },
      {
        "code" : {
          "coding" : [{
            "system" : "http://loinc.org",
            "code" : "62374-4"
          }]
        },
        "valueCodeableConcept" : {
          "coding" : [{
            "system" : "http://loinc.org",
            "code" : "LA14029-5",
            "display" : "GRCh37"
          }]
        }
      }]
    }
  },
  {
    "fullUrl" : "http://example.org/fhir/Observation/gx-genomic-diagnostic-implication-bap1",
    "resource" : {
      "resourceType" : "Observation",
      "id" : "gx-genomic-diagnostic-implication-bap1",
      "meta" : {
        "profile" : ["http://hl7.org/fhir/uv/genomics-reporting/StructureDefinition/diagnostic-implication"]
      },
      "text" : {
        "status" : "generated",
        "div" : "<div xmlns=\"http://www.w3.org/1999/xhtml\"><p><b>Generated Narrative: Observation</b><a name=\"gx-genomic-diagnostic-implication-bap1\"> </a></p><div style=\"display: inline-block; background-color: #d9e0e7; padding: 6px; margin: 4px; border: 1px solid #8da1b4; border-radius: 5px; line-height: 60%\"><p style=\"margin-bottom: 0px\">Resource Observation &quot;gx-genomic-diagnostic-implication-bap1&quot; </p><p style=\"margin-bottom: 0px\">Profile: <a href=\"http://hl7.org/fhir/uv/genomics-reporting/STU2/StructureDefinition-diagnostic-implication.html\">Diagnostic Implication</a></p></div><p><b>status</b>: final</p><p><b>category</b>: Laboratory <span style=\"background: LightGoldenRodYellow; margin: 4px; border: 1px solid khaki\"> (<a href=\"http://terminology.hl7.org/5.3.0/CodeSystem-observation-category.html\">Observation Category Codes</a>#laboratory)</span></p><p><b>code</b>: Diagnostic Implication <span style=\"background: LightGoldenRodYellow; margin: 4px; border: 1px solid khaki\"> (<a href=\"http://hl7.org/fhir/uv/genomics-reporting/STU2/CodeSystem-tbd-codes-cs.html\">To Be Determined Codes</a>#diagnostic-implication)</span></p><p><b>subject</b>: <a href=\"#Patient_gx-cancer-patient-adam-anyperson\">See above (Patient/gx-cancer-patient-adam-anyperson)</a></p><p><b>effective</b>: 2019-04-01</p><p><b>performer</b>: <a href=\"Practitioner-us-core-practitioner-owen-oncologist.html\">Practitioner/us-core-practitioner-owen-oncologist</a> &quot; ONCOLOGIST&quot;</p><p><b>derivedFrom</b>: <a href=\"#Observation_gx-genomic-variant-somatic-bap1-indel\">See above (Observation/gx-genomic-variant-somatic-bap1-indel)</a></p><h3>Components</h3><table class=\"grid\"><tr><td style=\"display: none\">-</td><td><b>Code</b></td><td><b>Value[x]</b></td></tr><tr><td style=\"display: none\">*</td><td>Functional Effect <span style=\"background: LightGoldenRodYellow; margin: 4px; border: 1px solid khaki\"> (<a href=\"http://hl7.org/fhir/uv/genomics-reporting/STU2/CodeSystem-tbd-codes-cs.html\">To Be Determined Codes</a>#functional-effect)</span></td><td>loss of function variant <span style=\"background: LightGoldenRodYellow; margin: 4px; border: 1px solid khaki\"> (#SO:0002054)</span></td></tr></table></div>"
      },
      "status" : "final",
      "category" : [{
        "coding" : [{
          "system" : "http://terminology.hl7.org/CodeSystem/observation-category",
          "code" : "laboratory"
        }]
      }],
      "code" : {
        "coding" : [{
          "system" : "http://hl7.org/fhir/uv/genomics-reporting/CodeSystem/tbd-codes-cs",
          "code" : "diagnostic-implication"
        }]
      },
      "subject" : {
        "reference" : "Patient/gx-cancer-patient-adam-anyperson"
      },
      "effectiveDateTime" : "2019-04-01",
      "performer" : [{
        "reference" : "Practitioner/us-core-practitioner-owen-oncologist"
      }],
      "derivedFrom" : [{
        "reference" : "Observation/gx-genomic-variant-somatic-bap1-indel"
      }],
      "component" : [{
        "code" : {
          "coding" : [{
            "system" : "http://hl7.org/fhir/uv/genomics-reporting/CodeSystem/tbd-codes-cs",
            "code" : "functional-effect"
          }]
        },
        "valueCodeableConcept" : {
          "coding" : [{
            "system" : "http://www.sequenceontology.org/",
            "code" : "SO:0002054",
            "display" : "loss of function variant"
          }]
        }
      }]
    }
  },
  {
    "fullUrl" : "http://example.org/fhir/Observation/gx-genomic-diagnostic-implication-pof1b",
    "resource" : {
      "resourceType" : "Observation",
      "id" : "gx-genomic-diagnostic-implication-pof1b",
      "meta" : {
        "profile" : ["http://hl7.org/fhir/uv/genomics-reporting/StructureDefinition/diagnostic-implication"]
      },
      "text" : {
        "status" : "generated",
        "div" : "<div xmlns=\"http://www.w3.org/1999/xhtml\"><p><b>Generated Narrative: Observation</b><a name=\"gx-genomic-diagnostic-implication-pof1b\"> </a></p><div style=\"display: inline-block; background-color: #d9e0e7; padding: 6px; margin: 4px; border: 1px solid #8da1b4; border-radius: 5px; line-height: 60%\"><p style=\"margin-bottom: 0px\">Resource Observation &quot;gx-genomic-diagnostic-implication-pof1b&quot; </p><p style=\"margin-bottom: 0px\">Profile: <a href=\"http://hl7.org/fhir/uv/genomics-reporting/STU2/StructureDefinition-diagnostic-implication.html\">Diagnostic Implication</a></p></div><p><b>status</b>: final</p><p><b>category</b>: Laboratory <span style=\"background: LightGoldenRodYellow; margin: 4px; border: 1px solid khaki\"> (<a href=\"http://terminology.hl7.org/5.3.0/CodeSystem-observation-category.html\">Observation Category Codes</a>#laboratory)</span></p><p><b>code</b>: Diagnostic Implication <span style=\"background: LightGoldenRodYellow; margin: 4px; border: 1px solid khaki\"> (<a href=\"http://hl7.org/fhir/uv/genomics-reporting/STU2/CodeSystem-tbd-codes-cs.html\">To Be Determined Codes</a>#diagnostic-implication)</span></p><p><b>subject</b>: <a href=\"#Patient_gx-cancer-patient-adam-anyperson\">See above (Patient/gx-cancer-patient-adam-anyperson)</a></p><p><b>effective</b>: 2019-04-01</p><p><b>performer</b>: <a href=\"Practitioner-us-core-practitioner-owen-oncologist.html\">Practitioner/us-core-practitioner-owen-oncologist</a> &quot; ONCOLOGIST&quot;</p><p><b>derivedFrom</b>: <a href=\"#Observation_gx-genomic-variant-somatic-pof1b\">See above (Observation/gx-genomic-variant-somatic-pof1b)</a></p><h3>Components</h3><table class=\"grid\"><tr><td style=\"display: none\">-</td><td><b>Code</b></td><td><b>Value[x]</b></td></tr><tr><td style=\"display: none\">*</td><td>53037-8 <span style=\"background: LightGoldenRodYellow; margin: 4px; border: 1px solid khaki\"> (<a href=\"https://loinc.org/\">LOINC</a>#53037-8)</span></td><td>Uncertain significance <span style=\"background: LightGoldenRodYellow; margin: 4px; border: 1px solid khaki\"> (<a href=\"https://loinc.org/\">LOINC</a>#LA26333-7)</span></td></tr></table></div>"
      },
      "status" : "final",
      "category" : [{
        "coding" : [{
          "system" : "http://terminology.hl7.org/CodeSystem/observation-category",
          "code" : "laboratory"
        }]
      }],
      "code" : {
        "coding" : [{
          "system" : "http://hl7.org/fhir/uv/genomics-reporting/CodeSystem/tbd-codes-cs",
          "code" : "diagnostic-implication"
        }]
      },
      "subject" : {
        "reference" : "Patient/gx-cancer-patient-adam-anyperson"
      },
      "effectiveDateTime" : "2019-04-01",
      "performer" : [{
        "reference" : "Practitioner/us-core-practitioner-owen-oncologist"
      }],
      "derivedFrom" : [{
        "reference" : "Observation/gx-genomic-variant-somatic-pof1b"
      }],
      "component" : [{
        "code" : {
          "coding" : [{
            "system" : "http://loinc.org",
            "code" : "53037-8"
          }]
        },
        "valueCodeableConcept" : {
          "coding" : [{
            "system" : "http://loinc.org",
            "code" : "LA26333-7",
            "display" : "Uncertain significance"
          }]
        }
      }]
    }
  },
  {
    "fullUrl" : "http://example.org/fhir/Observation/gx-genomic-diagnostic-implication-polrmt",
    "resource" : {
      "resourceType" : "Observation",
      "id" : "gx-genomic-diagnostic-implication-polrmt",
      "meta" : {
        "profile" : ["http://hl7.org/fhir/uv/genomics-reporting/StructureDefinition/diagnostic-implication"]
      },
      "text" : {
        "status" : "generated",
        "div" : "<div xmlns=\"http://www.w3.org/1999/xhtml\"><p><b>Generated Narrative: Observation</b><a name=\"gx-genomic-diagnostic-implication-polrmt\"> </a></p><div style=\"display: inline-block; background-color: #d9e0e7; padding: 6px; margin: 4px; border: 1px solid #8da1b4; border-radius: 5px; line-height: 60%\"><p style=\"margin-bottom: 0px\">Resource Observation &quot;gx-genomic-diagnostic-implication-polrmt&quot; </p><p style=\"margin-bottom: 0px\">Profile: <a href=\"http://hl7.org/fhir/uv/genomics-reporting/STU2/StructureDefinition-diagnostic-implication.html\">Diagnostic Implication</a></p></div><p><b>status</b>: final</p><p><b>category</b>: Laboratory <span style=\"background: LightGoldenRodYellow; margin: 4px; border: 1px solid khaki\"> (<a href=\"http://terminology.hl7.org/5.3.0/CodeSystem-observation-category.html\">Observation Category Codes</a>#laboratory)</span></p><p><b>code</b>: Diagnostic Implication <span style=\"background: LightGoldenRodYellow; margin: 4px; border: 1px solid khaki\"> (<a href=\"http://hl7.org/fhir/uv/genomics-reporting/STU2/CodeSystem-tbd-codes-cs.html\">To Be Determined Codes</a>#diagnostic-implication)</span></p><p><b>subject</b>: <a href=\"#Patient_gx-cancer-patient-adam-anyperson\">See above (Patient/gx-cancer-patient-adam-anyperson)</a></p><p><b>effective</b>: 2019-04-01</p><p><b>performer</b>: <a href=\"Practitioner-us-core-practitioner-owen-oncologist.html\">Practitioner/us-core-practitioner-owen-oncologist</a> &quot; ONCOLOGIST&quot;</p><p><b>derivedFrom</b>: <a href=\"#Observation_gx-genomic-variant-somatic-polrmt\">See above (Observation/gx-genomic-variant-somatic-polrmt)</a></p><h3>Components</h3><table class=\"grid\"><tr><td style=\"display: none\">-</td><td><b>Code</b></td><td><b>Value[x]</b></td></tr><tr><td style=\"display: none\">*</td><td>53037-8 <span style=\"background: LightGoldenRodYellow; margin: 4px; border: 1px solid khaki\"> (<a href=\"https://loinc.org/\">LOINC</a>#53037-8)</span></td><td>Uncertain significance <span style=\"background: LightGoldenRodYellow; margin: 4px; border: 1px solid khaki\"> (<a href=\"https://loinc.org/\">LOINC</a>#LA26333-7)</span></td></tr></table></div>"
      },
      "status" : "final",
      "category" : [{
        "coding" : [{
          "system" : "http://terminology.hl7.org/CodeSystem/observation-category",
          "code" : "laboratory"
        }]
      }],
      "code" : {
        "coding" : [{
          "system" : "http://hl7.org/fhir/uv/genomics-reporting/CodeSystem/tbd-codes-cs",
          "code" : "diagnostic-implication"
        }]
      },
      "subject" : {
        "reference" : "Patient/gx-cancer-patient-adam-anyperson"
      },
      "effectiveDateTime" : "2019-04-01",
      "performer" : [{
        "reference" : "Practitioner/us-core-practitioner-owen-oncologist"
      }],
      "derivedFrom" : [{
        "reference" : "Observation/gx-genomic-variant-somatic-polrmt"
      }],
      "component" : [{
        "code" : {
          "coding" : [{
            "system" : "http://loinc.org",
            "code" : "53037-8"
          }]
        },
        "valueCodeableConcept" : {
          "coding" : [{
            "system" : "http://loinc.org",
            "code" : "LA26333-7",
            "display" : "Uncertain significance"
          }]
        }
      }]
    }
  },
  {
    "fullUrl" : "http://example.org/fhir/Observation/gx-genomic-variant-fusion-met-alk",
    "resource" : {
      "resourceType" : "Observation",
      "id" : "gx-genomic-variant-fusion-met-alk",
      "meta" : {
        "profile" : ["http://hl7.org/fhir/us/mcode/StructureDefinition/mcode-genomic-variant"]
      },
      "text" : {
        "status" : "generated",
        "div" : "<div xmlns=\"http://www.w3.org/1999/xhtml\"><p><b>Generated Narrative: Observation</b><a name=\"gx-genomic-variant-fusion-met-alk\"> </a></p><div style=\"display: inline-block; background-color: #d9e0e7; padding: 6px; margin: 4px; border: 1px solid #8da1b4; border-radius: 5px; line-height: 60%\"><p style=\"margin-bottom: 0px\">Resource Observation &quot;gx-genomic-variant-fusion-met-alk&quot; </p><p style=\"margin-bottom: 0px\">Profile: <a href=\"StructureDefinition-mcode-genomic-variant.html\">Genomic Variant Profile</a></p></div><p><b>status</b>: final</p><p><b>category</b>: Laboratory <span style=\"background: LightGoldenRodYellow; margin: 4px; border: 1px solid khaki\"> (<a href=\"http://terminology.hl7.org/5.3.0/CodeSystem-observation-category.html\">Observation Category Codes</a>#laboratory)</span></p><p><b>code</b>: 69548-6 <span style=\"background: LightGoldenRodYellow; margin: 4px; border: 1px solid khaki\"> (<a href=\"https://loinc.org/\">LOINC</a>#69548-6)</span></p><p><b>subject</b>: <a href=\"#Patient_gx-cancer-patient-adam-anyperson\">See above (Patient/gx-cancer-patient-adam-anyperson)</a></p><p><b>effective</b>: 2019-04-01</p><p><b>performer</b>: <a href=\"Practitioner-us-core-practitioner-owen-oncologist.html\">Practitioner/us-core-practitioner-owen-oncologist</a> &quot; ONCOLOGIST&quot;</p><p><b>value</b>: Present <span style=\"background: LightGoldenRodYellow; margin: 4px; border: 1px solid khaki\"> (<a href=\"https://loinc.org/\">LOINC</a>#LA9633-4)</span></p><p><b>method</b>: Sequencing <span style=\"background: LightGoldenRodYellow; margin: 4px; border: 1px solid khaki\"> (<a href=\"https://loinc.org/\">LOINC</a>#LA26398-0)</span></p><blockquote><p><b>component</b></p><p><b>code</b>: 48018-6 <span style=\"background: LightGoldenRodYellow; margin: 4px; border: 1px solid khaki\"> (<a href=\"https://loinc.org/\">LOINC</a>#48018-6)</span></p><p><b>value</b>: MET <span style=\"background: LightGoldenRodYellow; margin: 4px; border: 1px solid khaki\"> (<a href=\"http://terminology.hl7.org/5.3.0/CodeSystem-v3-hgnc.html\">HUGO Gene Nomenclature Committee Genes</a>#HGNC:7029; gene#4233)</span></p></blockquote><blockquote><p><b>component</b></p><p><b>code</b>: 48018-6 <span style=\"background: LightGoldenRodYellow; margin: 4px; border: 1px solid khaki\"> (<a href=\"https://loinc.org/\">LOINC</a>#48018-6)</span></p><p><b>value</b>: ALK <span style=\"background: LightGoldenRodYellow; margin: 4px; border: 1px solid khaki\"> (<a href=\"http://terminology.hl7.org/5.3.0/CodeSystem-v3-hgnc.html\">HUGO Gene Nomenclature Committee Genes</a>#HGNC:427; gene#238)</span></p></blockquote><blockquote><p><b>component</b></p><p><b>code</b>: 48019-4 <span style=\"background: LightGoldenRodYellow; margin: 4px; border: 1px solid khaki\"> (<a href=\"https://loinc.org/\">LOINC</a>#48019-4)</span></p><p><b>value</b>: complex chromosomal rearrangement <span style=\"background: LightGoldenRodYellow; margin: 4px; border: 1px solid khaki\"> (#SO:0002062)</span></p></blockquote><blockquote><p><b>component</b></p><p><b>code</b>: 48002-0 <span style=\"background: LightGoldenRodYellow; margin: 4px; border: 1px solid khaki\"> (<a href=\"https://loinc.org/\">LOINC</a>#48002-0)</span></p><p><b>value</b>: Somatic <span style=\"background: LightGoldenRodYellow; margin: 4px; border: 1px solid khaki\"> (<a href=\"https://loinc.org/\">LOINC</a>#LA6684-0)</span></p></blockquote></div>"
      },
      "status" : "final",
      "category" : [{
        "coding" : [{
          "system" : "http://terminology.hl7.org/CodeSystem/observation-category",
          "code" : "laboratory"
        }]
      }],
      "code" : {
        "coding" : [{
          "system" : "http://loinc.org",
          "code" : "69548-6"
        }]
      },
      "subject" : {
        "reference" : "Patient/gx-cancer-patient-adam-anyperson"
      },
      "effectiveDateTime" : "2019-04-01",
      "performer" : [{
        "reference" : "Practitioner/us-core-practitioner-owen-oncologist"
      }],
      "valueCodeableConcept" : {
        "coding" : [{
          "system" : "http://loinc.org",
          "code" : "LA9633-4",
          "display" : "Present"
        }]
      },
      "method" : {
        "coding" : [{
          "system" : "http://loinc.org",
          "code" : "LA26398-0",
          "display" : "Sequencing"
        }]
      },
      "component" : [{
        "code" : {
          "coding" : [{
            "system" : "http://loinc.org",
            "code" : "48018-6"
          }]
        },
        "valueCodeableConcept" : {
          "coding" : [{
            "system" : "http://www.genenames.org",
            "code" : "HGNC:7029",
            "display" : "MET"
          },
          {
            "system" : "https://www.ncbi.nlm.nih.gov/gene",
            "code" : "4233",
            "display" : "MET"
          }]
        }
      },
      {
        "code" : {
          "coding" : [{
            "system" : "http://loinc.org",
            "code" : "48018-6"
          }]
        },
        "valueCodeableConcept" : {
          "coding" : [{
            "system" : "http://www.genenames.org",
            "code" : "HGNC:427",
            "display" : "ALK"
          },
          {
            "system" : "https://www.ncbi.nlm.nih.gov/gene",
            "code" : "238",
            "display" : "ALK"
          }]
        }
      },
      {
        "code" : {
          "coding" : [{
            "system" : "http://loinc.org",
            "code" : "48019-4"
          }]
        },
        "valueCodeableConcept" : {
          "coding" : [{
            "system" : "http://www.sequenceontology.org/",
            "code" : "SO:0002062",
            "display" : "complex chromosomal rearrangement"
          }]
        }
      },
      {
        "code" : {
          "coding" : [{
            "system" : "http://loinc.org",
            "code" : "48002-0"
          }]
        },
        "valueCodeableConcept" : {
          "coding" : [{
            "system" : "http://loinc.org",
            "code" : "LA6684-0",
            "display" : "Somatic"
          }]
        }
      }]
    }
  },
  {
    "fullUrl" : "http://example.org/fhir/Observation/gx-genomic-variant-pertinent-negative-nras-kit-braf",
    "resource" : {
      "resourceType" : "Observation",
      "id" : "gx-genomic-variant-pertinent-negative-nras-kit-braf",
      "meta" : {
        "profile" : ["http://hl7.org/fhir/us/mcode/StructureDefinition/mcode-genomic-variant"]
      },
      "text" : {
        "status" : "generated",
        "div" : "<div xmlns=\"http://www.w3.org/1999/xhtml\"><p><b>Generated Narrative: Observation</b><a name=\"gx-genomic-variant-pertinent-negative-nras-kit-braf\"> </a></p><div style=\"display: inline-block; background-color: #d9e0e7; padding: 6px; margin: 4px; border: 1px solid #8da1b4; border-radius: 5px; line-height: 60%\"><p style=\"margin-bottom: 0px\">Resource Observation &quot;gx-genomic-variant-pertinent-negative-nras-kit-braf&quot; </p><p style=\"margin-bottom: 0px\">Profile: <a href=\"StructureDefinition-mcode-genomic-variant.html\">Genomic Variant Profile</a></p></div><p><b>status</b>: final</p><p><b>category</b>: Laboratory <span style=\"background: LightGoldenRodYellow; margin: 4px; border: 1px solid khaki\"> (<a href=\"http://terminology.hl7.org/5.3.0/CodeSystem-observation-category.html\">Observation Category Codes</a>#laboratory)</span></p><p><b>code</b>: 69548-6 <span style=\"background: LightGoldenRodYellow; margin: 4px; border: 1px solid khaki\"> (<a href=\"https://loinc.org/\">LOINC</a>#69548-6)</span></p><p><b>subject</b>: <a href=\"#Patient_gx-cancer-patient-adam-anyperson\">See above (Patient/gx-cancer-patient-adam-anyperson)</a></p><p><b>effective</b>: 2019-04-01</p><p><b>performer</b>: <a href=\"Practitioner-us-core-practitioner-owen-oncologist.html\">Practitioner/us-core-practitioner-owen-oncologist</a> &quot; ONCOLOGIST&quot;</p><p><b>value</b>: Absent <span style=\"background: LightGoldenRodYellow; margin: 4px; border: 1px solid khaki\"> (<a href=\"https://loinc.org/\">LOINC</a>#LA9634-2)</span></p><p><b>method</b>: Sequencing <span style=\"background: LightGoldenRodYellow; margin: 4px; border: 1px solid khaki\"> (<a href=\"https://loinc.org/\">LOINC</a>#LA26398-0)</span></p><blockquote><p><b>component</b></p><p><b>code</b>: 48018-6 <span style=\"background: LightGoldenRodYellow; margin: 4px; border: 1px solid khaki\"> (<a href=\"https://loinc.org/\">LOINC</a>#48018-6)</span></p><p><b>value</b>: NRAS <span style=\"background: LightGoldenRodYellow; margin: 4px; border: 1px solid khaki\"> (<a href=\"http://terminology.hl7.org/5.3.0/CodeSystem-v3-hgnc.html\">HUGO Gene Nomenclature Committee Genes</a>#HGNC:6342)</span></p></blockquote><blockquote><p><b>component</b></p><p><b>code</b>: 48018-6 <span style=\"background: LightGoldenRodYellow; margin: 4px; border: 1px solid khaki\"> (<a href=\"https://loinc.org/\">LOINC</a>#48018-6)</span></p><p><b>value</b>: KIT <span style=\"background: LightGoldenRodYellow; margin: 4px; border: 1px solid khaki\"> (<a href=\"http://terminology.hl7.org/5.3.0/CodeSystem-v3-hgnc.html\">HUGO Gene Nomenclature Committee Genes</a>#HGNC:7989)</span></p></blockquote><blockquote><p><b>component</b></p><p><b>code</b>: 48018-6 <span style=\"background: LightGoldenRodYellow; margin: 4px; border: 1px solid khaki\"> (<a href=\"https://loinc.org/\">LOINC</a>#48018-6)</span></p><p><b>value</b>: BRAF <span style=\"background: LightGoldenRodYellow; margin: 4px; border: 1px solid khaki\"> (<a href=\"http://terminology.hl7.org/5.3.0/CodeSystem-v3-hgnc.html\">HUGO Gene Nomenclature Committee Genes</a>#HGNC:1097)</span></p></blockquote></div>"
      },
      "status" : "final",
      "category" : [{
        "coding" : [{
          "system" : "http://terminology.hl7.org/CodeSystem/observation-category",
          "code" : "laboratory"
        }]
      }],
      "code" : {
        "coding" : [{
          "system" : "http://loinc.org",
          "code" : "69548-6"
        }]
      },
      "subject" : {
        "reference" : "Patient/gx-cancer-patient-adam-anyperson"
      },
      "effectiveDateTime" : "2019-04-01",
      "performer" : [{
        "reference" : "Practitioner/us-core-practitioner-owen-oncologist"
      }],
      "valueCodeableConcept" : {
        "coding" : [{
          "system" : "http://loinc.org",
          "code" : "LA9634-2",
          "display" : "Absent"
        }]
      },
      "method" : {
        "coding" : [{
          "system" : "http://loinc.org",
          "code" : "LA26398-0",
          "display" : "Sequencing"
        }]
      },
      "component" : [{
        "code" : {
          "coding" : [{
            "system" : "http://loinc.org",
            "code" : "48018-6"
          }]
        },
        "valueCodeableConcept" : {
          "coding" : [{
            "system" : "http://www.genenames.org",
            "code" : "HGNC:6342",
            "display" : "NRAS"
          }]
        }
      },
      {
        "code" : {
          "coding" : [{
            "system" : "http://loinc.org",
            "code" : "48018-6"
          }]
        },
        "valueCodeableConcept" : {
          "coding" : [{
            "system" : "http://www.genenames.org",
            "code" : "HGNC:7989",
            "display" : "KIT"
          }]
        }
      },
      {
        "code" : {
          "coding" : [{
            "system" : "http://loinc.org",
            "code" : "48018-6"
          }]
        },
        "valueCodeableConcept" : {
          "coding" : [{
            "system" : "http://www.genenames.org",
            "code" : "HGNC:1097",
            "display" : "BRAF"
          }]
        }
      }]
    }
  },
  {
    "fullUrl" : "http://example.org/fhir/Observation/gx-genomic-tmb",
    "resource" : {
      "resourceType" : "Observation",
      "id" : "gx-genomic-tmb",
      "meta" : {
        "profile" : ["http://hl7.org/fhir/uv/genomics-reporting/StructureDefinition/tmb"]
      },
      "text" : {
        "status" : "generated",
        "div" : "<div xmlns=\"http://www.w3.org/1999/xhtml\"><p><b>Generated Narrative: Observation</b><a name=\"gx-genomic-tmb\"> </a></p><div style=\"display: inline-block; background-color: #d9e0e7; padding: 6px; margin: 4px; border: 1px solid #8da1b4; border-radius: 5px; line-height: 60%\"><p style=\"margin-bottom: 0px\">Resource Observation &quot;gx-genomic-tmb&quot; </p><p style=\"margin-bottom: 0px\">Profile: <a href=\"http://hl7.org/fhir/uv/genomics-reporting/STU2/StructureDefinition-tmb.html\">Tumor Mutation Burden</a></p></div><p><b>status</b>: final</p><p><b>category</b>: Laboratory <span style=\"background: LightGoldenRodYellow; margin: 4px; border: 1px solid khaki\"> (<a href=\"http://terminology.hl7.org/5.3.0/CodeSystem-observation-category.html\">Observation Category Codes</a>#laboratory)</span></p><p><b>code</b>: 94076-7 <span style=\"background: LightGoldenRodYellow; margin: 4px; border: 1px solid khaki\"> (<a href=\"https://loinc.org/\">LOINC</a>#94076-7)</span></p><p><b>subject</b>: <a href=\"#Patient_gx-cancer-patient-adam-anyperson\">See above (Patient/gx-cancer-patient-adam-anyperson)</a></p><p><b>effective</b>: 2019-04-01</p><p><b>performer</b>: <a href=\"Practitioner-us-core-practitioner-owen-oncologist.html\">Practitioner/us-core-practitioner-owen-oncologist</a> &quot; ONCOLOGIST&quot;</p><p><b>value</b>: 57.1 1/1000000{Base}<span style=\"background: LightGoldenRodYellow\"> (Details: UCUM code 1/1000000{Base} = '1/1000000{Base}')</span></p></div>"
      },
      "status" : "final",
      "category" : [{
        "coding" : [{
          "system" : "http://terminology.hl7.org/CodeSystem/observation-category",
          "code" : "laboratory"
        }]
      }],
      "code" : {
        "coding" : [{
          "system" : "http://loinc.org",
          "code" : "94076-7"
        }]
      },
      "subject" : {
        "reference" : "Patient/gx-cancer-patient-adam-anyperson"
      },
      "effectiveDateTime" : "2019-04-01",
      "performer" : [{
        "reference" : "Practitioner/us-core-practitioner-owen-oncologist"
      }],
      "valueQuantity" : {
        "value" : 57.1,
        "system" : "http://unitsofmeasure.org",
        "code" : "1/1000000{Base}"
      }
    }
  },
  {
    "fullUrl" : "http://example.org/fhir/Observation/gx-genomic-therapeutic-implication-alectinib",
    "resource" : {
      "resourceType" : "Observation",
      "id" : "gx-genomic-therapeutic-implication-alectinib",
      "meta" : {
        "profile" : ["http://hl7.org/fhir/uv/genomics-reporting/StructureDefinition/therapeutic-implication"]
      },
      "text" : {
        "status" : "generated",
        "div" : "<div xmlns=\"http://www.w3.org/1999/xhtml\"><p><b>Generated Narrative: Observation</b><a name=\"gx-genomic-therapeutic-implication-alectinib\"> </a></p><div style=\"display: inline-block; background-color: #d9e0e7; padding: 6px; margin: 4px; border: 1px solid #8da1b4; border-radius: 5px; line-height: 60%\"><p style=\"margin-bottom: 0px\">Resource Observation &quot;gx-genomic-therapeutic-implication-alectinib&quot; </p><p style=\"margin-bottom: 0px\">Profile: <a href=\"http://hl7.org/fhir/uv/genomics-reporting/STU2/StructureDefinition-therapeutic-implication.html\">Therapeutic Implication</a></p></div><p><b>status</b>: final</p><p><b>category</b>: Laboratory <span style=\"background: LightGoldenRodYellow; margin: 4px; border: 1px solid khaki\"> (<a href=\"http://terminology.hl7.org/5.3.0/CodeSystem-observation-category.html\">Observation Category Codes</a>#laboratory)</span></p><p><b>code</b>: Therapeutic Implication <span style=\"background: LightGoldenRodYellow; margin: 4px; border: 1px solid khaki\"> (<a href=\"http://hl7.org/fhir/uv/genomics-reporting/STU2/CodeSystem-tbd-codes-cs.html\">To Be Determined Codes</a>#therapeutic-implication)</span></p><p><b>subject</b>: <a href=\"#Patient_gx-cancer-patient-adam-anyperson\">See above (Patient/gx-cancer-patient-adam-anyperson)</a></p><p><b>effective</b>: 2019-04-01</p><p><b>performer</b>: <a href=\"Practitioner-us-core-practitioner-owen-oncologist.html\">Practitioner/us-core-practitioner-owen-oncologist</a> &quot; ONCOLOGIST&quot;</p><p><b>derivedFrom</b>: <a href=\"#Observation_gx-genomic-variant-fusion-met-alk\">See above (Observation/gx-genomic-variant-fusion-met-alk)</a></p><blockquote><p><b>component</b></p><p><b>code</b>: 51963-7 <span style=\"background: LightGoldenRodYellow; margin: 4px; border: 1px solid khaki\"> (<a href=\"https://loinc.org/\">LOINC</a>#51963-7)</span></p><p><b>value</b>: alectinib <span style=\"background: LightGoldenRodYellow; margin: 4px; border: 1px solid khaki\"> (<a href=\"http://terminology.hl7.org/5.3.0/CodeSystem-v3-rxNorm.html\">RxNorm</a>#1727455)</span></p></blockquote><blockquote><p><b>component</b></p><p><b>code</b>: Predicted Therapeutic Implication <span style=\"background: LightGoldenRodYellow; margin: 4px; border: 1px solid khaki\"> (<a href=\"http://hl7.org/fhir/uv/genomics-reporting/STU2/CodeSystem-tbd-codes-cs.html\">To Be Determined Codes</a>#predicted-therapeutic-implication)</span></p><p><b>value</b>: Presumed responsive <span style=\"background: LightGoldenRodYellow; margin: 4px; border: 1px solid khaki\"> (<a href=\"https://loinc.org/\">LOINC</a>#LA9661-5)</span></p></blockquote></div>"
      },
      "status" : "final",
      "category" : [{
        "coding" : [{
          "system" : "http://terminology.hl7.org/CodeSystem/observation-category",
          "code" : "laboratory"
        }]
      }],
      "code" : {
        "coding" : [{
          "system" : "http://hl7.org/fhir/uv/genomics-reporting/CodeSystem/tbd-codes-cs",
          "code" : "therapeutic-implication"
        }]
      },
      "subject" : {
        "reference" : "Patient/gx-cancer-patient-adam-anyperson"
      },
      "effectiveDateTime" : "2019-04-01",
      "performer" : [{
        "reference" : "Practitioner/us-core-practitioner-owen-oncologist"
      }],
      "derivedFrom" : [{
        "reference" : "Observation/gx-genomic-variant-fusion-met-alk"
      }],
      "component" : [{
        "code" : {
          "coding" : [{
            "system" : "http://loinc.org",
            "code" : "51963-7"
          }]
        },
        "valueCodeableConcept" : {
          "coding" : [{
            "system" : "http://www.nlm.nih.gov/research/umls/rxnorm",
            "code" : "1727455",
            "display" : "alectinib"
          }]
        }
      },
      {
        "code" : {
          "coding" : [{
            "system" : "http://hl7.org/fhir/uv/genomics-reporting/CodeSystem/tbd-codes-cs",
            "code" : "predicted-therapeutic-implication"
          }]
        },
        "valueCodeableConcept" : {
          "coding" : [{
            "system" : "http://loinc.org",
            "code" : "LA9661-5",
            "display" : "Presumed responsive"
          }]
        }
      }]
    }
  },
  {
    "fullUrl" : "http://example.org/fhir/Observation/gx-genomic-therapeutic-implication-brigatinib",
    "resource" : {
      "resourceType" : "Observation",
      "id" : "gx-genomic-therapeutic-implication-brigatinib",
      "meta" : {
        "profile" : ["http://hl7.org/fhir/uv/genomics-reporting/StructureDefinition/therapeutic-implication"]
      },
      "text" : {
        "status" : "generated",
        "div" : "<div xmlns=\"http://www.w3.org/1999/xhtml\"><p><b>Generated Narrative: Observation</b><a name=\"gx-genomic-therapeutic-implication-brigatinib\"> </a></p><div style=\"display: inline-block; background-color: #d9e0e7; padding: 6px; margin: 4px; border: 1px solid #8da1b4; border-radius: 5px; line-height: 60%\"><p style=\"margin-bottom: 0px\">Resource Observation &quot;gx-genomic-therapeutic-implication-brigatinib&quot; </p><p style=\"margin-bottom: 0px\">Profile: <a href=\"http://hl7.org/fhir/uv/genomics-reporting/STU2/StructureDefinition-therapeutic-implication.html\">Therapeutic Implication</a></p></div><p><b>status</b>: final</p><p><b>category</b>: Laboratory <span style=\"background: LightGoldenRodYellow; margin: 4px; border: 1px solid khaki\"> (<a href=\"http://terminology.hl7.org/5.3.0/CodeSystem-observation-category.html\">Observation Category Codes</a>#laboratory)</span></p><p><b>code</b>: Therapeutic Implication <span style=\"background: LightGoldenRodYellow; margin: 4px; border: 1px solid khaki\"> (<a href=\"http://hl7.org/fhir/uv/genomics-reporting/STU2/CodeSystem-tbd-codes-cs.html\">To Be Determined Codes</a>#therapeutic-implication)</span></p><p><b>subject</b>: <a href=\"#Patient_gx-cancer-patient-adam-anyperson\">See above (Patient/gx-cancer-patient-adam-anyperson)</a></p><p><b>effective</b>: 2019-04-01</p><p><b>performer</b>: <a href=\"Practitioner-us-core-practitioner-owen-oncologist.html\">Practitioner/us-core-practitioner-owen-oncologist</a> &quot; ONCOLOGIST&quot;</p><p><b>derivedFrom</b>: <a href=\"#Observation_gx-genomic-variant-fusion-met-alk\">See above (Observation/gx-genomic-variant-fusion-met-alk)</a></p><blockquote><p><b>component</b></p><p><b>code</b>: 51963-7 <span style=\"background: LightGoldenRodYellow; margin: 4px; border: 1px solid khaki\"> (<a href=\"https://loinc.org/\">LOINC</a>#51963-7)</span></p><p><b>value</b>: brigatinib <span style=\"background: LightGoldenRodYellow; margin: 4px; border: 1px solid khaki\"> (<a href=\"http://terminology.hl7.org/5.3.0/CodeSystem-v3-rxNorm.html\">RxNorm</a>#1921217)</span></p></blockquote><blockquote><p><b>component</b></p><p><b>code</b>: Predicted Therapeutic Implication <span style=\"background: LightGoldenRodYellow; margin: 4px; border: 1px solid khaki\"> (<a href=\"http://hl7.org/fhir/uv/genomics-reporting/STU2/CodeSystem-tbd-codes-cs.html\">To Be Determined Codes</a>#predicted-therapeutic-implication)</span></p><p><b>value</b>: Presumed responsive <span style=\"background: LightGoldenRodYellow; margin: 4px; border: 1px solid khaki\"> (<a href=\"https://loinc.org/\">LOINC</a>#LA9661-5)</span></p></blockquote></div>"
      },
      "status" : "final",
      "category" : [{
        "coding" : [{
          "system" : "http://terminology.hl7.org/CodeSystem/observation-category",
          "code" : "laboratory"
        }]
      }],
      "code" : {
        "coding" : [{
          "system" : "http://hl7.org/fhir/uv/genomics-reporting/CodeSystem/tbd-codes-cs",
          "code" : "therapeutic-implication"
        }]
      },
      "subject" : {
        "reference" : "Patient/gx-cancer-patient-adam-anyperson"
      },
      "effectiveDateTime" : "2019-04-01",
      "performer" : [{
        "reference" : "Practitioner/us-core-practitioner-owen-oncologist"
      }],
      "derivedFrom" : [{
        "reference" : "Observation/gx-genomic-variant-fusion-met-alk"
      }],
      "component" : [{
        "code" : {
          "coding" : [{
            "system" : "http://loinc.org",
            "code" : "51963-7"
          }]
        },
        "valueCodeableConcept" : {
          "coding" : [{
            "system" : "http://www.nlm.nih.gov/research/umls/rxnorm",
            "code" : "1921217",
            "display" : "brigatinib"
          }]
        }
      },
      {
        "code" : {
          "coding" : [{
            "system" : "http://hl7.org/fhir/uv/genomics-reporting/CodeSystem/tbd-codes-cs",
            "code" : "predicted-therapeutic-implication"
          }]
        },
        "valueCodeableConcept" : {
          "coding" : [{
            "system" : "http://loinc.org",
            "code" : "LA9661-5",
            "display" : "Presumed responsive"
          }]
        }
      }]
    }
  },
  {
    "fullUrl" : "http://example.org/fhir/Observation/gx-genomic-therapeutic-implication-ceritinib",
    "resource" : {
      "resourceType" : "Observation",
      "id" : "gx-genomic-therapeutic-implication-ceritinib",
      "meta" : {
        "profile" : ["http://hl7.org/fhir/uv/genomics-reporting/StructureDefinition/therapeutic-implication"]
      },
      "text" : {
        "status" : "generated",
        "div" : "<div xmlns=\"http://www.w3.org/1999/xhtml\"><p><b>Generated Narrative: Observation</b><a name=\"gx-genomic-therapeutic-implication-ceritinib\"> </a></p><div style=\"display: inline-block; background-color: #d9e0e7; padding: 6px; margin: 4px; border: 1px solid #8da1b4; border-radius: 5px; line-height: 60%\"><p style=\"margin-bottom: 0px\">Resource Observation &quot;gx-genomic-therapeutic-implication-ceritinib&quot; </p><p style=\"margin-bottom: 0px\">Profile: <a href=\"http://hl7.org/fhir/uv/genomics-reporting/STU2/StructureDefinition-therapeutic-implication.html\">Therapeutic Implication</a></p></div><p><b>status</b>: final</p><p><b>category</b>: Laboratory <span style=\"background: LightGoldenRodYellow; margin: 4px; border: 1px solid khaki\"> (<a href=\"http://terminology.hl7.org/5.3.0/CodeSystem-observation-category.html\">Observation Category Codes</a>#laboratory)</span></p><p><b>code</b>: Therapeutic Implication <span style=\"background: LightGoldenRodYellow; margin: 4px; border: 1px solid khaki\"> (<a href=\"http://hl7.org/fhir/uv/genomics-reporting/STU2/CodeSystem-tbd-codes-cs.html\">To Be Determined Codes</a>#therapeutic-implication)</span></p><p><b>subject</b>: <a href=\"#Patient_gx-cancer-patient-adam-anyperson\">See above (Patient/gx-cancer-patient-adam-anyperson)</a></p><p><b>effective</b>: 2019-04-01</p><p><b>performer</b>: <a href=\"Practitioner-us-core-practitioner-owen-oncologist.html\">Practitioner/us-core-practitioner-owen-oncologist</a> &quot; ONCOLOGIST&quot;</p><p><b>derivedFrom</b>: <a href=\"#Observation_gx-genomic-variant-fusion-met-alk\">See above (Observation/gx-genomic-variant-fusion-met-alk)</a></p><blockquote><p><b>component</b></p><p><b>code</b>: 51963-7 <span style=\"background: LightGoldenRodYellow; margin: 4px; border: 1px solid khaki\"> (<a href=\"https://loinc.org/\">LOINC</a>#51963-7)</span></p><p><b>value</b>: ceritinib <span style=\"background: LightGoldenRodYellow; margin: 4px; border: 1px solid khaki\"> (<a href=\"http://terminology.hl7.org/5.3.0/CodeSystem-v3-rxNorm.html\">RxNorm</a>#1535457)</span></p></blockquote><blockquote><p><b>component</b></p><p><b>code</b>: Predicted Therapeutic Implication <span style=\"background: LightGoldenRodYellow; margin: 4px; border: 1px solid khaki\"> (<a href=\"http://hl7.org/fhir/uv/genomics-reporting/STU2/CodeSystem-tbd-codes-cs.html\">To Be Determined Codes</a>#predicted-therapeutic-implication)</span></p><p><b>value</b>: Presumed responsive <span style=\"background: LightGoldenRodYellow; margin: 4px; border: 1px solid khaki\"> (<a href=\"https://loinc.org/\">LOINC</a>#LA9661-5)</span></p></blockquote></div>"
      },
      "status" : "final",
      "category" : [{
        "coding" : [{
          "system" : "http://terminology.hl7.org/CodeSystem/observation-category",
          "code" : "laboratory"
        }]
      }],
      "code" : {
        "coding" : [{
          "system" : "http://hl7.org/fhir/uv/genomics-reporting/CodeSystem/tbd-codes-cs",
          "code" : "therapeutic-implication"
        }]
      },
      "subject" : {
        "reference" : "Patient/gx-cancer-patient-adam-anyperson"
      },
      "effectiveDateTime" : "2019-04-01",
      "performer" : [{
        "reference" : "Practitioner/us-core-practitioner-owen-oncologist"
      }],
      "derivedFrom" : [{
        "reference" : "Observation/gx-genomic-variant-fusion-met-alk"
      }],
      "component" : [{
        "code" : {
          "coding" : [{
            "system" : "http://loinc.org",
            "code" : "51963-7"
          }]
        },
        "valueCodeableConcept" : {
          "coding" : [{
            "system" : "http://www.nlm.nih.gov/research/umls/rxnorm",
            "code" : "1535457",
            "display" : "ceritinib"
          }]
        }
      },
      {
        "code" : {
          "coding" : [{
            "system" : "http://hl7.org/fhir/uv/genomics-reporting/CodeSystem/tbd-codes-cs",
            "code" : "predicted-therapeutic-implication"
          }]
        },
        "valueCodeableConcept" : {
          "coding" : [{
            "system" : "http://loinc.org",
            "code" : "LA9661-5",
            "display" : "Presumed responsive"
          }]
        }
      }]
    }
  },
  {
    "fullUrl" : "http://example.org/fhir/Observation/gx-genomic-therapeutic-implication-crizotinib",
    "resource" : {
      "resourceType" : "Observation",
      "id" : "gx-genomic-therapeutic-implication-crizotinib",
      "meta" : {
        "profile" : ["http://hl7.org/fhir/uv/genomics-reporting/StructureDefinition/therapeutic-implication"]
      },
      "text" : {
        "status" : "generated",
        "div" : "<div xmlns=\"http://www.w3.org/1999/xhtml\"><p><b>Generated Narrative: Observation</b><a name=\"gx-genomic-therapeutic-implication-crizotinib\"> </a></p><div style=\"display: inline-block; background-color: #d9e0e7; padding: 6px; margin: 4px; border: 1px solid #8da1b4; border-radius: 5px; line-height: 60%\"><p style=\"margin-bottom: 0px\">Resource Observation &quot;gx-genomic-therapeutic-implication-crizotinib&quot; </p><p style=\"margin-bottom: 0px\">Profile: <a href=\"http://hl7.org/fhir/uv/genomics-reporting/STU2/StructureDefinition-therapeutic-implication.html\">Therapeutic Implication</a></p></div><p><b>status</b>: final</p><p><b>category</b>: Laboratory <span style=\"background: LightGoldenRodYellow; margin: 4px; border: 1px solid khaki\"> (<a href=\"http://terminology.hl7.org/5.3.0/CodeSystem-observation-category.html\">Observation Category Codes</a>#laboratory)</span></p><p><b>code</b>: Therapeutic Implication <span style=\"background: LightGoldenRodYellow; margin: 4px; border: 1px solid khaki\"> (<a href=\"http://hl7.org/fhir/uv/genomics-reporting/STU2/CodeSystem-tbd-codes-cs.html\">To Be Determined Codes</a>#therapeutic-implication)</span></p><p><b>subject</b>: <a href=\"#Patient_gx-cancer-patient-adam-anyperson\">See above (Patient/gx-cancer-patient-adam-anyperson)</a></p><p><b>effective</b>: 2019-04-01</p><p><b>performer</b>: <a href=\"Practitioner-us-core-practitioner-owen-oncologist.html\">Practitioner/us-core-practitioner-owen-oncologist</a> &quot; ONCOLOGIST&quot;</p><p><b>derivedFrom</b>: <a href=\"#Observation_gx-genomic-variant-fusion-met-alk\">See above (Observation/gx-genomic-variant-fusion-met-alk)</a></p><blockquote><p><b>component</b></p><p><b>code</b>: 51963-7 <span style=\"background: LightGoldenRodYellow; margin: 4px; border: 1px solid khaki\"> (<a href=\"https://loinc.org/\">LOINC</a>#51963-7)</span></p><p><b>value</b>: crizotinib <span style=\"background: LightGoldenRodYellow; margin: 4px; border: 1px solid khaki\"> (<a href=\"http://terminology.hl7.org/5.3.0/CodeSystem-v3-rxNorm.html\">RxNorm</a>#1148495)</span></p></blockquote><blockquote><p><b>component</b></p><p><b>code</b>: Predicted Therapeutic Implication <span style=\"background: LightGoldenRodYellow; margin: 4px; border: 1px solid khaki\"> (<a href=\"http://hl7.org/fhir/uv/genomics-reporting/STU2/CodeSystem-tbd-codes-cs.html\">To Be Determined Codes</a>#predicted-therapeutic-implication)</span></p><p><b>value</b>: Presumed responsive <span style=\"background: LightGoldenRodYellow; margin: 4px; border: 1px solid khaki\"> (<a href=\"https://loinc.org/\">LOINC</a>#LA9661-5)</span></p></blockquote></div>"
      },
      "status" : "final",
      "category" : [{
        "coding" : [{
          "system" : "http://terminology.hl7.org/CodeSystem/observation-category",
          "code" : "laboratory"
        }]
      }],
      "code" : {
        "coding" : [{
          "system" : "http://hl7.org/fhir/uv/genomics-reporting/CodeSystem/tbd-codes-cs",
          "code" : "therapeutic-implication"
        }]
      },
      "subject" : {
        "reference" : "Patient/gx-cancer-patient-adam-anyperson"
      },
      "effectiveDateTime" : "2019-04-01",
      "performer" : [{
        "reference" : "Practitioner/us-core-practitioner-owen-oncologist"
      }],
      "derivedFrom" : [{
        "reference" : "Observation/gx-genomic-variant-fusion-met-alk"
      }],
      "component" : [{
        "code" : {
          "coding" : [{
            "system" : "http://loinc.org",
            "code" : "51963-7"
          }]
        },
        "valueCodeableConcept" : {
          "coding" : [{
            "system" : "http://www.nlm.nih.gov/research/umls/rxnorm",
            "code" : "1148495",
            "display" : "crizotinib"
          }]
        }
      },
      {
        "code" : {
          "coding" : [{
            "system" : "http://hl7.org/fhir/uv/genomics-reporting/CodeSystem/tbd-codes-cs",
            "code" : "predicted-therapeutic-implication"
          }]
        },
        "valueCodeableConcept" : {
          "coding" : [{
            "system" : "http://loinc.org",
            "code" : "LA9661-5",
            "display" : "Presumed responsive"
          }]
        }
      }]
    }
  },
  {
    "fullUrl" : "http://example.org/fhir/Observation/gx-genomic-therapeutic-implication-lorlatinib",
    "resource" : {
      "resourceType" : "Observation",
      "id" : "gx-genomic-therapeutic-implication-lorlatinib",
      "meta" : {
        "profile" : ["http://hl7.org/fhir/uv/genomics-reporting/StructureDefinition/therapeutic-implication"]
      },
      "text" : {
        "status" : "generated",
        "div" : "<div xmlns=\"http://www.w3.org/1999/xhtml\"><p><b>Generated Narrative: Observation</b><a name=\"gx-genomic-therapeutic-implication-lorlatinib\"> </a></p><div style=\"display: inline-block; background-color: #d9e0e7; padding: 6px; margin: 4px; border: 1px solid #8da1b4; border-radius: 5px; line-height: 60%\"><p style=\"margin-bottom: 0px\">Resource Observation &quot;gx-genomic-therapeutic-implication-lorlatinib&quot; </p><p style=\"margin-bottom: 0px\">Profile: <a href=\"http://hl7.org/fhir/uv/genomics-reporting/STU2/StructureDefinition-therapeutic-implication.html\">Therapeutic Implication</a></p></div><p><b>status</b>: final</p><p><b>category</b>: Laboratory <span style=\"background: LightGoldenRodYellow; margin: 4px; border: 1px solid khaki\"> (<a href=\"http://terminology.hl7.org/5.3.0/CodeSystem-observation-category.html\">Observation Category Codes</a>#laboratory)</span></p><p><b>code</b>: Therapeutic Implication <span style=\"background: LightGoldenRodYellow; margin: 4px; border: 1px solid khaki\"> (<a href=\"http://hl7.org/fhir/uv/genomics-reporting/STU2/CodeSystem-tbd-codes-cs.html\">To Be Determined Codes</a>#therapeutic-implication)</span></p><p><b>subject</b>: <a href=\"#Patient_gx-cancer-patient-adam-anyperson\">See above (Patient/gx-cancer-patient-adam-anyperson)</a></p><p><b>effective</b>: 2019-04-01</p><p><b>performer</b>: <a href=\"Practitioner-us-core-practitioner-owen-oncologist.html\">Practitioner/us-core-practitioner-owen-oncologist</a> &quot; ONCOLOGIST&quot;</p><p><b>derivedFrom</b>: <a href=\"#Observation_gx-genomic-variant-fusion-met-alk\">See above (Observation/gx-genomic-variant-fusion-met-alk)</a></p><blockquote><p><b>component</b></p><p><b>code</b>: 51963-7 <span style=\"background: LightGoldenRodYellow; margin: 4px; border: 1px solid khaki\"> (<a href=\"https://loinc.org/\">LOINC</a>#51963-7)</span></p><p><b>value</b>: lorlatinib <span style=\"background: LightGoldenRodYellow; margin: 4px; border: 1px solid khaki\"> (<a href=\"http://terminology.hl7.org/5.3.0/CodeSystem-v3-rxNorm.html\">RxNorm</a>#2103164)</span></p></blockquote><blockquote><p><b>component</b></p><p><b>code</b>: Predicted Therapeutic Implication <span style=\"background: LightGoldenRodYellow; margin: 4px; border: 1px solid khaki\"> (<a href=\"http://hl7.org/fhir/uv/genomics-reporting/STU2/CodeSystem-tbd-codes-cs.html\">To Be Determined Codes</a>#predicted-therapeutic-implication)</span></p><p><b>value</b>: Presumed responsive <span style=\"background: LightGoldenRodYellow; margin: 4px; border: 1px solid khaki\"> (<a href=\"https://loinc.org/\">LOINC</a>#LA9661-5)</span></p></blockquote></div>"
      },
      "status" : "final",
      "category" : [{
        "coding" : [{
          "system" : "http://terminology.hl7.org/CodeSystem/observation-category",
          "code" : "laboratory"
        }]
      }],
      "code" : {
        "coding" : [{
          "system" : "http://hl7.org/fhir/uv/genomics-reporting/CodeSystem/tbd-codes-cs",
          "code" : "therapeutic-implication"
        }]
      },
      "subject" : {
        "reference" : "Patient/gx-cancer-patient-adam-anyperson"
      },
      "effectiveDateTime" : "2019-04-01",
      "performer" : [{
        "reference" : "Practitioner/us-core-practitioner-owen-oncologist"
      }],
      "derivedFrom" : [{
        "reference" : "Observation/gx-genomic-variant-fusion-met-alk"
      }],
      "component" : [{
        "code" : {
          "coding" : [{
            "system" : "http://loinc.org",
            "code" : "51963-7"
          }]
        },
        "valueCodeableConcept" : {
          "coding" : [{
            "system" : "http://www.nlm.nih.gov/research/umls/rxnorm",
            "code" : "2103164",
            "display" : "lorlatinib"
          }]
        }
      },
      {
        "code" : {
          "coding" : [{
            "system" : "http://hl7.org/fhir/uv/genomics-reporting/CodeSystem/tbd-codes-cs",
            "code" : "predicted-therapeutic-implication"
          }]
        },
        "valueCodeableConcept" : {
          "coding" : [{
            "system" : "http://loinc.org",
            "code" : "LA9661-5",
            "display" : "Presumed responsive"
          }]
        }
      }]
    }
  }]
}